SensorId, TimeStamp (s), FrameNumber, AccX (g), AccY (g), AccZ (g), GyroX (deg/s), GyroY (deg/s), GyroZ (deg/s), MagX (uT), MagY (uT), MagZ (uT), EulerX (deg), EulerY (deg), EulerZ (deg), QuatW, QuatX, QuatY, QuatZ, LinAccX (g), LinAccY (g), LinAccZ (g), Pressure (kPa), Altitude (m), Temperature (degC), HeaveMotion (m)
1, 0.0000, 0, -0.02666842, -0.93290609, -0.38345304, 0.59919822, -0.17369422, 0.21918774, 14.48980618, -59.10988617, 38.03575134, 1.60879660, 1.37463725, 1.31057441, 0.99976611, -0.01389983, -0.01215426, -0.01126632, 0.04964732, 0.90656817, -0.61593527, 87.60900116, 1209.97497559, 39.38999939, 0.00000000
1, 0.0100, 1, -0.03023663, -0.93751121, -0.38475579, 0.08494306, -0.62174040, 0.08829348, 14.85545158, -59.98946762, 38.09284973, 1.60983992, 1.37133515, 1.30528998, 0.99976683, -0.01390983, -0.01212491, -0.01122051, 0.05419466, 0.90942293, -0.61456251, 87.60900116, 1209.97497559, 39.38999939, 0.00000000
1, 0.0200, 2, -0.03440851, -0.93636990, -0.38759309, -0.35647586, -1.13726175, -0.07939881, 15.36735439, -62.36434555, 38.16897583, 1.60669923, 1.36751986, 1.29433882, 0.99976861, -0.01388396, -0.01208999, -0.01112577, 0.05829629, 0.90831256, -0.61172771, 87.60900116, 1209.97497559, 39.38999939, 0.00000000
1, 0.0300, 3, -0.03650068, -0.93395680, -0.38987550, -0.85259449, -1.44622564, -0.31289440, 15.36735439, -62.36434555, 38.16897583, 1.59874594, 1.36461651, 1.27933228, 0.99977136, -0.01381644, -0.01206208, -0.01099604, 0.06033006, 0.90600979, -0.60944986, 87.60900116, 1209.97497559, 39.38999939, 0.00000000
1, 0.0400, 4, -0.03794815, -0.93113577, -0.39230180, -0.99058312, -1.80498028, -0.47821927, 15.29422855, -60.73711777, 38.49252319, 1.58956349, 1.36179316, 1.26027858, 0.99977452, -0.01373861, -0.01203428, -0.01083112, 0.06172733, 0.90334678, -0.60702914, 87.60900116, 1209.97497559, 39.38999939, 0.00000000
1, 0.0500, 5, -0.03655570, -0.92834830, -0.39380503, -0.75641632, -1.78456593, -0.56639814, 15.36735439, -60.34130478, 38.60671234, 1.59033942, 1.36154628, 1.27140987, 0.99977350, -0.01374424, -0.01203354, -0.01092818, 0.06030804, 0.90065837, -0.60552931, 87.60900116, 1209.97497559, 39.38999939, 0.00000000
1, 0.0600, 6, -0.03796128, -0.92515606, -0.39456668, -0.23829222, -1.62668419, -0.52950770, 14.85545158, -60.78109741, 38.72090530, 1.58861589, 1.35988998, 1.25425923, 0.99977541, -0.01373116, -0.01201687, -0.01077893, 0.06170248, 0.89744115, -0.60476720, 87.60900116, 1209.97497559, 39.38999939, 0.00000000
1, 0.0700, 7, -0.03803829, -0.92194784, -0.39509839, 0.15073325, -1.02324200, -0.51801139, 14.74575996, -59.63763428, 37.99768829, 1.59057999, 1.36054099, 1.24292719, 0.99977618, -0.01374942, -0.01202137, -0.01067978, 0.06177263, 0.89421362, -0.60423517, 87.60900116, 1209.97497559, 39.38999939, 0.00000000
1, 0.0800, 8, -0.03708623, -0.92059278, -0.39310908, 0.10640488, -0.44405434, -0.27718109, 14.74575996, -59.63763428, 37.99768829, 1.59185135, 1.36130214, 1.23781955, 0.99977648, -0.01376098, -0.01202752, -0.01063499, 0.06083491, 0.89283109, -0.60622334, 87.60900116, 1209.97497559, 39.38999939, 0.00000000
1, 0.0900, 9, -0.03600062, -0.91906536, -0.39622465, -0.00509115, -0.01607920, -0.26784223, 14.67262936, -58.71406937, 38.05478668, 1.59185922, 1.36369240, 1.23660266, 0.99977630, -0.01376094, -0.01204823, -0.01062408, 0.05978673, 0.89129770, -0.60310668, 87.60900116, 1209.97497559, 39.38999939, 0.00000000
1, 0.1000, 10, -0.03680702, -0.91716135, -0.39591214, -0.04508193, 0.22148582, -0.12209890, 14.96514320, -60.82507324, 38.37833023, 1.62997961, 1.38762903, 1.27088821, 0.99976599, -0.01408757, -0.01226482, -0.01091620, 0.06072475, 0.88922298, -0.60341126, 87.60900116, 1209.97497559, 39.38999939, 0.00000000
1, 0.1100, 11, -0.03752195, -0.91783220, -0.39066333, 0.04207563, 0.49663362, -0.11658092, 14.52637196, -61.48476028, 38.35929489, 1.63024735, 1.39067984, 1.27500021, 0.99976522, -0.01408917, -0.01229196, -0.01095167, 0.06176699, 0.88939285, -0.60863811, 87.60900116, 1209.97497559, 39.38999939, 0.00000000
1, 0.1200, 12, -0.03559486, -0.92212868, -0.39095002, 0.08001893, 0.43002316, -0.22356728, 15.00170898, -60.95701218, 38.58768082, 1.63092339, 1.39444387, 1.27808595, 0.99976444, -0.01409436, -0.01232524, -0.01097804, 0.05990772, 0.89369392, -0.60834986, 87.60900116, 1209.97497559, 39.38999939, 0.00000000
1, 0.1300, 13, -0.03508884, -0.92512351, -0.39395049, 0.47680360, 0.26245022, -0.28103936, 15.00170898, -60.95701218, 38.58768082, 1.63563967, 1.39805841, 1.27966499, 0.99976337, -0.01413498, -0.01235743, -0.01099086, 0.05946380, 0.89662838, -0.60534620, 87.60900116, 1209.97497559, 39.38999939, 0.00000000
1, 0.1400, 14, -0.03263883, -0.92844021, -0.39203987, 1.05207396, 0.02595372, -0.23503672, 15.11140537, -58.84601212, 38.24510574, 1.64618897, 1.40029585, 1.27962649, 0.99976182, -0.01422681, -0.01237796, -0.01098910, 0.05706051, 0.89979208, -0.60725129, 87.60900116, 1209.97497559, 39.38999939, 0.00000000
1, 0.1500, 15, -0.03201189, -0.93114644, -0.38796023, 1.08827126, -0.19875681, -0.11682356, 14.70919418, -59.32978439, 37.67414474, 1.71701992, 1.41871142, 1.31410134, 0.99974757, -0.01483917, -0.01254988, -0.01127979, 0.05653249, 0.90204227, -0.61131519, 87.60900116, 1209.97497559, 39.38999939, 0.00000000
1, 0.1600, 16, -0.03257155, -0.93080962, -0.38464093, 0.72880965, -0.27190089, -0.01179156, 14.41668034, -58.62611389, 37.57898331, 1.72439826, 1.41772258, 1.31203020, 0.99974692, -0.01490387, -0.01254171, -0.01126105, 0.05732279, 0.90077198, -0.61460131, 87.60900116, 1209.97497559, 39.38999939, 0.00000000
1, 0.1700, 17, -0.03317129, -0.92892116, -0.38312629, 0.29831687, -0.44881088, 0.10885455, 15.14796638, -60.56120300, 38.22607422, 1.72752452, 1.41493416, 1.30853915, 0.99974716, -0.01493181, -0.01251723, -0.01123062, 0.05788327, 0.89880037, -0.61611450, 87.60900116, 1209.97497559, 39.38999939, 0.00000000
1, 0.1800, 18, -0.03731008, -0.92887396, -0.38418654, 0.08230810, -0.52082956, 0.21347126, 15.14796638, -60.56120300, 38.22607422, 1.72848380, 1.41090083, 1.30466402, 0.99974781, -0.01494101, -0.01248163, -0.01119724, 0.06196038, 0.89872408, -0.61505485, 87.60900116, 1209.97497559, 39.38999939, 0.00000000
1, 0.1900, 19, -0.04054607, -0.92691505, -0.38577700, 0.12104882, -0.62117249, 0.07061662, 14.92858315, -60.69313812, 38.45445633, 1.72989070, 1.40777373, 1.29933882, 0.99974853, -0.01495418, -0.01245379, -0.01115104, 0.06513843, 0.89674735, -0.61346525, 87.60900116, 1209.97497559, 39.38999939, 0.00000000
1, 0.2000, 20, -0.03939985, -0.93004400, -0.38738686, 0.22823949, -0.60346204, 0.08823930, 14.89201736, -59.98946762, 38.51155472, 1.78007483, 1.39395893, 1.33256507, 0.99973994, -0.01538982, -0.01234261, -0.01143735, 0.06388585, 0.89963043, -0.61185050, 87.60900116, 1209.97497559, 39.38999939, 0.00000000
1, 0.2100, 21, -0.03908286, -0.93068916, -0.39071104, -0.16092002, -0.60025305, -0.29722527, 14.70919418, -60.47323990, 38.22607422, 1.77873349, 1.39430535, 1.32578027, 0.99974084, -0.01537881, -0.01234459, -0.01137826, 0.06341274, 0.89964843, -0.60851097, 87.60900116, 1209.97497559, 39.38999939, 0.00000000
1, 0.2200, 22, -0.04183926, -0.92960459, -0.39248717, -0.25077173, -0.44514877, -0.38158098, 14.27041817, -60.20936584, 38.07381439, 1.77644718, 1.39604211, 1.32002640, 0.99974155, -0.01535931, -0.01235874, -0.01132807, 0.06618828, 0.89860237, -0.60673553, 87.60900116, 1209.97497559, 39.38999939, 0.00000000
1, 0.2300, 23, -0.04358588, -0.92792994, -0.39400190, -0.34393716, -0.03389914, -0.39022824, 14.27041817, -60.20936584, 38.07381439, 1.77308059, 1.39949429, 1.31795168, 0.99974185, -0.01532981, -0.01238825, -0.01130986, 0.06798518, 0.89697409, -0.60522103, 87.60900116, 1209.97497559, 39.38999939, 0.00000000
1, 0.2400, 24, -0.04421715, -0.92428058, -0.39204422, -0.17027929, 0.48094466, -0.30962241, 14.63606358, -59.81355286, 38.41639328, 1.77126026, 1.40424752, 1.32102621, 0.99974132, -0.01531311, -0.01242995, -0.01133624, 0.06869226, 0.89337188, -0.60717833, 87.60900116, 1209.97497559, 39.38999939, 0.00000000
1, 0.2500, 25, -0.04180074, -0.92279094, -0.39145330, -0.39123484, 0.87119126, -0.14253707, 14.41668034, -60.69313812, 38.45445633, 1.78295445, 1.39477777, 1.36285889, 0.99973643, -0.01541159, -0.01235412, -0.01170123, 0.06629871, 0.89186680, -0.60776818, 87.60900116, 1209.97497559, 39.38999939, 0.00000000
1, 0.2600, 26, -0.04190891, -0.92389321, -0.39124703, -0.29115191, 1.15790141, 0.21475059, 14.30698395, -60.82507324, 38.35929489, 1.77960730, 1.39741683, 1.37413490, 0.99973547, -0.01538089, -0.01237831, -0.01179960, 0.06628042, 0.89282548, -0.60797310, 87.60900116, 1209.97497559, 39.38999939, 0.00000000
1, 0.2700, 27, -0.03854003, -0.92488658, -0.38887894, -0.32845372, 1.20793235, 0.28622979, 15.11140537, -61.08895111, 38.16897583, 1.77586174, 1.39959693, 1.38612640, 0.99973452, -0.01534669, -0.01239855, -0.01190433, 0.06295060, 0.89388657, -0.61034232, 87.60900116, 1209.97497559, 39.38999939, 0.00000000
1, 0.2800, 28, -0.03600169, -0.92469037, -0.38931134, -0.04203350, 1.20961022, 0.32054529, 14.78232574, -62.05649185, 38.13091278, 1.77497017, 1.40146506, 1.39845574, 0.99973315, -0.01533737, -0.01241641, -0.01201173, 0.06044324, 0.89372122, -0.60991013, 87.60900116, 1209.97497559, 39.38999939, 0.00000000
1, 0.2900, 29, -0.03508927, -0.92656803, -0.39122248, -0.04144094, 1.03693628, 0.38722637, 14.78232574, -62.05649185, 38.13091278, 1.77413797, 1.40203476, 1.40947092, 0.99973208, -0.01532886, -0.01242277, -0.01210785, 0.05955410, 0.89561325, -0.60799891, 87.60900116, 1209.97497559, 39.38999939, 0.00000000
1, 0.3000, 30, -0.03494557, -0.92605305, -0.39087874, -0.02491072, 0.94873416, 0.54352629, 14.56293774, -59.28580475, 37.84543228, 1.78848135, 1.41105044, 1.45134389, 0.99972469, -0.01544844, -0.01250858, -0.01247036, 0.05944495, 0.89504206, -0.60834002, 87.60900116, 1209.97497559, 39.38999939, 0.00000000
1, 0.3100, 31, -0.03480077, -0.92793089, -0.39350596, 0.08209122, 0.87953436, 0.62963563, 14.96514320, -59.50569916, 38.18800735, 1.78889120, 1.40876806, 1.46195078, 0.99972379, -0.01545112, -0.01249014, -0.01256317, 0.05940226, 0.89672577, -0.60570431, 87.60900116, 1209.97497559, 39.38999939, 0.00000000
1, 0.3200, 32, -0.03741205, -0.92708182, -0.39371300, 0.20867363, 0.65638691, 0.69487011, 14.81888676, -62.18843079, 38.34026337, 1.79062760, 1.40498912, 1.47084904, 0.99972290, -0.01546572, -0.01245857, -0.01264113, 0.06195439, 0.89586127, -0.60549819, 87.60900116, 1209.97497559, 39.38999939, 0.00000000
1, 0.3300, 33, -0.03943200, -0.92470622, -0.39350265, 0.46290562, 0.52342665, 0.55067033, 14.52637196, -61.88057327, 38.18800735, 1.79497862, 1.40200651, 1.47812200, 0.99972183, -0.01550323, -0.01243401, -0.01270452, 0.06392008, 0.89342272, -0.60570788, 87.60900116, 1209.97497559, 39.38999939, 0.00000000
1, 0.3400, 34, -0.03770070, -0.92374194, -0.39507678, 0.39667585, 0.26929754, 0.31701228, 14.52637196, -61.88057327, 38.18800735, 1.79879880, 1.40016079, 1.48209608, 0.99972105, -0.01553634, -0.01241887, -0.01273903, 0.06214752, 0.89238280, -0.60413235, 87.60900116, 1209.97497559, 39.38999939, 0.00000000
1, 0.3500, 35, -0.03827998, -0.92165798, -0.39632967, 0.23976450, 0.09994227, 0.10299224, 14.63606358, -59.76956940, 38.62574387, 1.81838477, 1.37172604, 1.52048862, 0.99971700, -0.01570639, -0.01217824, -0.01307583, 0.06258263, 0.89017814, -0.60287923, 87.60900116, 1209.97497559, 39.38999939, 0.00000000
1, 0.3600, 36, -0.03866338, -0.92162353, -0.39497980, 0.06512649, 0.06938776, -0.21352534, 14.78232574, -60.16538239, 37.67414474, 1.81904900, 1.37395906, 1.52032053, 0.99971676, -0.01571194, -0.01219778, -0.01307398, 0.06262583, 0.88988978, -0.60422933, 87.60900116, 1209.97497559, 39.38999939, 0.00000000
1, 0.3700, 37, -0.03690951, -0.92312753, -0.39463300, -0.03972537, 0.03710361, -0.38966635, 15.44048595, -59.68161774, 37.82640076, 1.81871903, 1.37769079, 1.51909530, 0.99971652, -0.01570876, -0.01223013, -0.01306280, 0.06092355, 0.89140314, -0.60457516, 87.60900116, 1209.97497559, 39.38999939, 0.00000000
1, 0.3800, 38, -0.03620227, -0.92564118, -0.39307407, 0.57167798, 0.14795561, -0.58256793, 15.00170898, -59.68161774, 38.09284973, 1.82447994, 1.38361132, 1.51850283, 0.99971521, -0.01575838, -0.01228235, -0.01305619, 0.06031115, 0.89386219, -0.60613000, 87.60900116, 1209.97497559, 39.38999939, 0.00000000
1, 0.3900, 39, -0.03319953, -0.92908317, -0.39041987, 0.81760603, 0.33459404, -0.33330038, 15.00170898, -59.68161774, 38.09284973, 1.83260298, 1.38798666, 1.52075696, 0.99971336, -0.01582849, -0.01232176, -0.01307437, 0.05739533, 0.89716399, -0.60877764, 87.60900116, 1209.97497559, 39.38999939, 0.00000000
1, 0.4000, 40, -0.03146728, -0.92971778, -0.38914400, 0.61408603, 0.42965898, 0.05604379, 15.14796638, -60.56120300, 38.01671982, 1.88938141, 1.42116654, 1.55671048, 0.99969780, -0.01631598, -0.01262282, -0.01337710, 0.05584763, 0.89745855, -0.61003804, 87.60900116, 1209.97497559, 39.38999939, 0.00000000
1, 0.4100, 41, -0.03077052, -0.92923814, -0.39190212, 0.29060644, 0.47829840, 0.07563449, 15.11140537, -61.48476028, 38.09284973, 1.89210439, 1.42235661, 1.56157470, 0.99969667, -0.01633905, -0.01263421, -0.01341906, 0.05558111, 0.89624983, -0.60724562, 87.60900116, 1209.97497559, 39.38999939, 0.00000000
1, 0.4200, 42, -0.02931354, -0.92383492, -0.39492428, 0.25462458, 0.35651490, 0.16107580, 15.03827477, -60.03344727, 38.16897583, 1.89450490, 1.42228436, 1.56563818, 0.99969584, -0.01635955, -0.01263444, -0.01345426, 0.05413239, 0.89081025, -0.60422206, 87.60900116, 1209.97497559, 39.38999939, 0.00000000
1, 0.4300, 43, -0.02636900, -0.91997963, -0.39895669, 0.61889249, 0.03657797, -0.04012651, 15.29422855, -60.64915848, 38.32123184, 1.90068817, 1.42278731, 1.56620991, 0.99969482, -0.01641337, -0.01263964, -0.01345849, 0.05119634, 0.88686979, -0.60018659, 87.60900116, 1209.97497559, 39.38999939, 0.00000000
1, 0.4400, 44, -0.02660738, -0.91719919, -0.40155470, 1.47367680, -0.60145140, -0.49561352, 15.29422855, -60.64915848, 38.32123184, 1.91569841, 1.42493069, 1.55966520, 0.99969327, -0.01654478, -0.01265916, -0.01339942, 0.05146059, 0.88389206, -0.59758139, 87.60900116, 1209.97497559, 39.38999939, 0.00000000
1, 0.4500, 45, -0.02492797, -0.91454864, -0.40379423, 2.16253400, -1.03806567, -0.75299680, 14.30698395, -59.63763428, 38.79703140, 1.91561985, 1.43578339, 1.57459140, 0.99969035, -0.01654113, -0.01275598, -0.01352805, 0.04985677, 0.88098502, -0.59533143, 87.60900116, 1209.97497559, 39.38999939, 0.00000000
1, 0.4600, 46, -0.02615101, -0.91233730, -0.40600705, 2.19040251, -1.56364346, -1.13327610, 14.67262936, -61.48476028, 38.37833023, 1.93823445, 1.43997133, 1.55716014, 0.99968863, -0.01673985, -0.01279264, -0.01337284, 0.05125561, 0.87867868, -0.59311104, 87.60900116, 1209.97497559, 39.38999939, 0.00000000
1, 0.4700, 47, -0.02850653, -0.91134840, -0.41107172, 1.87257588, -1.78572333, -1.34791243, 14.85545158, -59.50569916, 38.01671982, 1.95778644, 1.44526923, 1.53665292, 0.99968755, -0.01691208, -0.01283811, -0.01319095, 0.05369421, 0.87732077, -0.58803171, 87.60900116, 1209.97497559, 39.38999939, 0.00000000
1, 0.4800, 48, -0.02959131, -0.91002303, -0.41698161, 1.69929528, -2.12674713, -1.56549156, 15.07484055, -60.73711777, 37.88349915, 1.97576797, 1.45123553, 1.51205325, 0.99968708, -0.01707101, -0.01288857, -0.01297343, 0.05487490, 0.87567514, -0.58210850, 87.60900116, 1209.97497559, 39.38999939, 0.00000000
1, 0.4900, 49, -0.02811525, -0.91263318, -0.41830724, 1.58191085, -2.72492647, -1.77106977, 15.07484055, -60.73711777, 37.88349915, 1.99278760, 1.45673430, 1.48107016, 0.99968737, -0.01722234, -0.01293380, -0.01270038, 0.05350073, 0.87798750, -0.58076990, 87.60900116, 1209.97497559, 39.38999939, 0.00000000
1, 0.5000, 50, -0.02584771, -0.91487467, -0.41512939, 1.96213293, -2.90836072, -1.91671610, 15.07484055, -60.42926025, 38.09284973, 1.99221146, 1.46750689, 1.47227073, 0.99968731, -0.01721708, -0.01302640, -0.01262203, 0.05135570, 0.87997437, -0.58393586, 87.60900116, 1209.97497559, 39.38999939, 0.00000000
1, 0.5100, 51, -0.02729643, -0.92195714, -0.40996534, 2.14016581, -2.87379432, -1.84622097, 14.85545158, -60.60517502, 38.39736176, 2.01488352, 1.47311556, 1.43998694, 0.99968672, -0.01741791, -0.01307292, -0.01233694, 0.05296577, 0.88695472, -0.58909214, 87.60900116, 1209.97497559, 39.38999939, 0.00000000
1, 0.5200, 52, -0.02742460, -0.92299813, -0.40388209, 2.49699736, -2.94245672, -1.67297328, 15.07484055, -59.90151215, 37.92155838, 2.04109740, 1.47686636, 1.40797734, 0.99968576, -0.01764984, -0.01310353, -0.01205411, 0.05317573, 0.88757133, -0.59515834, 87.60900116, 1209.97497559, 39.38999939, 0.00000000
1, 0.5300, 53, -0.02852943, -0.92600554, -0.39576206, 2.70928240, -2.89217615, -1.49678242, 14.81888676, -59.32978439, 37.94059372, 2.06940556, 1.47920346, 1.37726629, 0.99968427, -0.01790006, -0.01312210, -0.01178258, 0.05432926, 0.89009297, -0.60325980, 87.60900116, 1209.97497559, 39.38999939, 0.00000000
1, 0.5400, 54, -0.03007388, -0.92951202, -0.39325029, 2.18788171, -2.93256736, -1.37298822, 14.81888676, -59.32978439, 37.94059372, 2.09248328, 1.48027289, 1.34633100, 0.99968362, -0.01810482, -0.01312891, -0.01150989, 0.05590361, 0.89316076, -0.60575485, 87.60900116, 1209.97497559, 39.38999939, 0.00000000
1, 0.5500, 55, -0.03149024, -0.93052405, -0.39222687, 1.52724254, -3.19449091, -1.41162992, 15.00170898, -61.57272339, 38.09284973, 2.10270143, 1.48106575, 1.33918655, 0.99968266, -0.01819470, -0.01313573, -0.01144627, 0.05733151, 0.89385462, -0.60676640, 87.60900116, 1209.97497559, 39.38999939, 0.00000000
1, 0.5600, 56, -0.03328477, -0.92724502, -0.39108455, 1.26595831, -3.93302464, -1.49667048, 15.07484055, -61.08895111, 37.78833771, 2.11689973, 1.47938180, 1.29800236, 0.99968463, -0.01832345, -0.01311587, -0.01108563, 0.05911560, 0.89041519, -0.60790318, 87.60900116, 1209.97497559, 39.38999939, 0.00000000
1, 0.5700, 57, -0.03118357, -0.92510682, -0.38738480, 1.31072283, -4.66773367, -1.67045856, 14.81888676, -60.51721954, 37.92155838, 2.13183928, 1.47642624, 1.24940097, 0.99968714, -0.01845963, -0.01308370, -0.01066041, 0.05696730, 0.88802665, -0.61159480, 87.60900116, 1209.97497559, 39.38999939, 0.00000000
1, 0.5800, 58, -0.03338291, -0.92441708, -0.38478857, 1.69367111, -5.17735577, -1.80539274, 15.18453217, -60.12141037, 38.07381439, 2.15080166, 1.47272646, 1.19585669, 0.99968940, -0.01863151, -0.01304448, -0.01019174, 0.05911135, 0.88703442, -0.61418128, 87.60900116, 1209.97497559, 39.38999939, 0.00000000
1, 0.5900, 59, -0.03435010, -0.92595273, -0.38102564, 1.85475910, -5.08975267, -1.83920050, 15.22109699, -61.66067886, 37.84543228, 2.17136788, 1.46969652, 1.14307916, 0.99969101, -0.01881721, -0.01301122, -0.00972947, 0.06001584, 0.88820910, -0.61793214, 87.60900116, 1209.97497559, 39.38999939, 0.00000000
1, 0.6000, 60, -0.03672525, -0.92443097, -0.38113296, 1.69207108, -4.86717367, -1.88675809, 15.22109699, -61.66067886, 37.84543228, 2.18761396, 1.46210980, 1.11896193, 0.99969119, -0.01896234, -0.01294242, -0.00951850, 0.06232704, 0.88635755, -0.61781394, 87.60900116, 1209.97497559, 39.38999939, 0.00000000
1, 0.6100, 61, -0.03746136, -0.92653739, -0.38164839, 1.47251689, -4.38858366, -1.87602460, 14.67262936, -61.74863815, 38.09284973, 2.20412874, 1.46219528, 1.07224262, 0.99969220, -0.01911168, -0.01293674, -0.00910905, 0.06297553, 0.88819450, -0.61729044, 87.60900116, 1209.97497559, 39.38999939, 0.00000000
1, 0.6200, 62, -0.03773788, -0.92978030, -0.38315156, 1.57180846, -3.53067470, -1.82313538, 15.33078861, -62.89209366, 37.92155838, 2.22133636, 1.46515715, 1.03367484, 0.99969202, -0.01926592, -0.01295747, -0.00877014, 0.06328404, 0.89114720, -0.61577535, 87.60900116, 1209.97497559, 39.38999939, 0.00000000
1, 0.6300, 63, -0.04208355, -0.93244845, -0.38032591, 2.08552504, -2.99657798, -1.70800877, 15.18453217, -59.94548798, 37.75027084, 2.24348259, 1.46914423, 1.00079429, 0.99969035, -0.01946252, -0.01298836, -0.00848010, 0.06769624, 0.89346606, -0.61858571, 87.60900116, 1209.97497559, 39.38999939, 0.00000000
1, 0.6400, 64, -0.04108039, -0.93620700, -0.37486514, 2.61557841, -2.39487600, -1.52119744, 14.34354877, -59.54967499, 37.29350281, 2.27068210, 1.47375882, 0.97449791, 0.99968708, -0.01970244, -0.01302611, -0.00824681, 0.06677140, 0.89678389, -0.62402713, 87.60900116, 1209.97497559, 39.38999939, 0.00000000
1, 0.6500, 65, -0.04216158, -0.93542516, -0.36927149, 2.91600704, -2.01626968, -1.44384372, 14.34354877, -59.54967499, 37.29350281, 2.31004977, 1.47367358, 0.98284596, 0.99967968, -0.02004493, -0.01302966, -0.00831518, 0.06791365, 0.89545810, -0.62959760, 87.60900116, 1209.97497559, 39.38999939, 0.00000000
1, 0.6600, 66, -0.03854168, -0.93367290, -0.36875784, 2.85949111, -1.93322015, -1.30129826, 14.78232574, -59.41773987, 38.14994431, 2.33948398, 1.47807622, 0.96181840, 0.99967545, -0.02030377, -0.01306647, -0.00812760, 0.06430700, 0.89306045, -0.63008487, 87.60900116, 1209.97497559, 39.38999939, 0.00000000
1, 0.6700, 67, -0.03598379, -0.93000412, -0.36701134, 2.78646588, -1.95265496, -1.19601345, 15.22109699, -60.51721954, 38.20703888, 2.36819482, 1.48145056, 0.94096708, 0.99967146, -0.02055637, -0.01309421, -0.00794181, 0.06181795, 0.88888955, -0.63180906, 87.60900116, 1209.97497559, 39.38999939, 0.00000000
1, 0.6800, 68, -0.03181153, -0.92976367, -0.36677945, 2.51639867, -1.83469594, -1.19270730, 15.03827477, -61.83659363, 38.05478668, 2.39415574, 1.48526239, 0.92105025, 0.99966770, -0.02078484, -0.01312565, -0.00776440, 0.05770591, 0.88816839, -0.63201952, 87.60900116, 1209.97497559, 39.38999939, 0.00000000
1, 0.6900, 69, -0.03179121, -0.93468916, -0.36367613, 2.34733009, -1.34225667, -0.95331895, 15.14796638, -61.08895111, 37.65511322, 2.41822433, 1.48878562, 0.90648830, 0.99966389, -0.02099623, -0.01315535, -0.00763395, 0.05774682, 0.89266092, -0.63510305, 87.60900116, 1209.97497559, 39.38999939, 0.00000000
1, 0.7000, 70, -0.03477352, -0.93636078, -0.36288998, 2.28263998, -0.52335739, -0.68980837, 15.14796638, -61.08895111, 37.65511322, 2.47222638, 1.49198830, 0.93293160, 0.99965179, -0.02146405, -0.01319183, -0.00785783, 0.06079619, 0.89380175, -0.63586503, 87.60900116, 1209.97497559, 39.38999939, 0.00000000
1, 0.7100, 71, -0.03367645, -0.94096822, -0.35961878, 2.36402106, 0.14372523, -0.51782799, 15.18453217, -59.63763428, 37.78833771, 2.49589658, 1.49725509, 0.93374515, 0.99964660, -0.02167005, -0.01323956, -0.00786119, 0.05977185, 0.89759064, -0.63909912, 87.60900116, 1209.97497559, 39.38999939, 0.00000000
1, 0.7200, 72, -0.03093804, -0.94731140, -0.35689595, 2.35649323, 0.62027770, -0.27926806, 15.22109699, -59.28580475, 37.61705017, 2.51930046, 1.50215721, 0.93987566, 0.99964124, -0.02187315, -0.01328510, -0.00791103, 0.05712181, 0.90352285, -0.64180171, 87.60900116, 1209.97497559, 39.38999939, 0.00000000
1, 0.7300, 73, -0.02954174, -0.95442283, -0.35505483, 2.20653677, 1.01022744, -0.05967131, 15.14796638, -59.54967499, 37.82640076, 2.54103112, 1.50653660, 0.95034039, 0.99963588, -0.02206117, -0.01332681, -0.00799894, 0.05580570, 0.91024256, -0.64362347, 87.60900116, 1209.97497559, 39.38999939, 0.00000000
1, 0.7400, 74, -0.02843726, -0.95989519, -0.35105130, 2.05875182, 1.10800683, 0.18893293, 15.14796638, -60.91303253, 38.34026337, 2.56121707, 1.50900126, 0.96257418, 0.99963081, -0.02223565, -0.01335210, -0.00810283, 0.05475980, 0.91534811, -0.64760911, 87.60900116, 1209.97497559, 39.38999939, 0.00000000
1, 0.7500, 75, -0.02393986, -0.95989811, -0.34857151, 1.45400667, 1.64279687, 0.78211087, 15.14796638, -60.91303253, 38.34026337, 2.61891794, 1.51865590, 1.01396906, 0.99961472, -0.02273224, -0.01345059, -0.00854251, 0.05031095, 0.91487807, -0.65006638, 87.60900116, 1209.97497559, 39.38999939, 0.00000000
1, 0.7600, 76, -0.02853529, -0.95974457, -0.34708217, 0.77844667, 2.50751138, 1.10118866, 14.52637196, -61.96853638, 37.95962524, 2.62569928, 1.51809096, 1.04179204, 0.99961126, -0.02278818, -0.01345170, -0.00878453, 0.05503124, 0.91398126, -0.65151858, 87.60900116, 1209.97497559, 39.38999939, 0.00000000
1, 0.7700, 77, -0.02550844, -0.95414531, -0.34947044, -0.19861464, 2.92300272, 1.46447968, 15.07484055, -61.22089005, 38.05478668, 2.62250948, 1.51579201, 1.07422721, 0.99960965, -0.02275674, -0.01343784, -0.00906831, 0.05197908, 0.90837646, -0.64913088, 87.60900116, 1209.97497559, 39.38999939, 0.00000000
1, 0.7800, 78, -0.02764964, -0.94997770, -0.35287923, -0.90542483, 3.55016279, 1.60287583, 15.25766277, -60.73711777, 37.73123932, 2.61203718, 1.51464868, 1.11252928, 0.99960876, -0.02266099, -0.01343462, -0.00940388, 0.05408664, 0.90434027, -0.64572895, 87.60900116, 1209.97497559, 39.38999939, 0.00000000
1, 0.7900, 79, -0.02615863, -0.94355899, -0.35450920, -1.42804325, 3.75105643, 1.66143346, 15.18453217, -60.03344727, 38.26413727, 2.59625721, 1.51375735, 1.15257668, 0.99960852, -0.02251872, -0.01343342, -0.00975525, 0.05257882, 0.89816660, -0.64411056, 87.60900116, 1209.97497559, 39.38999939, 0.00000000
1, 0.8000, 80, -0.02612719, -0.93736488, -0.35877204, -1.35680175, 3.75104594, 1.69637179, 15.18453217, -60.03344727, 38.26413727, 2.59294534, 1.51531422, 1.22112167, 0.99960303, -0.02248164, -0.01346017, -0.01035326, 0.05253957, 0.89219481, -0.63985801, 87.60900116, 1209.97497559, 39.38999939, 0.00000000
1, 0.8100, 81, -0.02869316, -0.93227279, -0.36125579, -1.24996126, 3.94171715, 1.62974012, 15.14796638, -60.82507324, 37.95962524, 2.57889056, 1.51545703, 1.26292074, 0.99960196, -0.02235412, -0.01346830, -0.01071951, 0.05513720, 0.88720834, -0.63737822, 87.60900116, 1209.97497559, 39.38999939, 0.00000000
1, 0.8200, 82, -0.02794112, -0.92711842, -0.36462593, -0.83717388, 4.06674147, 1.52563596, 14.78232574, -60.03344727, 37.84543228, 2.56894350, 1.51704025, 1.30573308, 0.99959958, -0.02226215, -0.01348950, -0.01109382, 0.05440021, 0.88225400, -0.63401663, 87.60900116, 1209.97497559, 39.38999939, 0.00000000
1, 0.8300, 83, -0.02621500, -0.92503399, -0.36766899, -0.42159528, 4.07370281, 1.29599261, 15.11140537, -60.16538239, 38.05478668, 2.56320381, 1.52076685, 1.34798086, 0.99959624, -0.02220672, -0.01352964, -0.01146230, 0.05272664, 0.88029420, -0.63097787, 87.60900116, 1209.97497559, 39.38999939, 0.00000000
1, 0.8400, 84, -0.02319307, -0.92268652, -0.37072676, -0.18640457, 4.00863934, 1.18843532, 15.36735439, -60.73711777, 38.30220032, 2.55983400, 1.52523279, 1.38936460, 0.99959207, -0.02217195, -0.01357626, -0.01182282, 0.04978245, 0.87802219, -0.62792140, 87.60900116, 1209.97497559, 39.38999939, 0.00000000
1, 0.8500, 85, -0.02249957, -0.92372441, -0.37392655, -0.07785641, 3.71588063, 1.30499637, 14.63606358, -61.17690277, 37.99768829, 2.56126094, 1.53349948, 1.45536518, 0.99958396, -0.02217564, -0.01366130, -0.01239675, 0.04916550, 0.87908971, -0.62472093, 87.60900116, 1209.97497559, 39.38999939, 0.00000000
1, 0.8600, 86, -0.02211415, -0.92718101, -0.37280867, 0.04750828, 3.73401785, 1.30499399, 14.63606358, -61.17690277, 37.99768829, 2.56032038, 1.53582299, 1.49482119, 0.99957949, -0.02216246, -0.01368909, -0.01274058, 0.04890283, 0.88252389, -0.62583447, 87.60900116, 1209.97497559, 39.38999939, 0.00000000
1, 0.8700, 87, -0.01950934, -0.93068844, -0.37418997, 0.47691730, 3.54556203, 1.49307954, 14.63606358, -59.94548798, 37.95962524, 2.56368589, 1.53567076, 1.53353226, 0.99957454, -0.02218721, -0.01369564, -0.01307788, 0.04631222, 0.88600761, -0.62445176, 87.60900116, 1209.97497559, 39.38999939, 0.00000000
1, 0.8800, 88, -0.02060512, -0.93507439, -0.37549487, 1.23110449, 3.32733870, 1.55649722, 14.85545158, -60.42926025, 38.43542480, 2.57466435, 1.53407276, 1.57095194, 0.99956822, -0.02227869, -0.01369023, -0.01340329, 0.04739228, 0.89025551, -0.62314105, 87.60900116, 1209.97497559, 39.38999939, 0.00000000
1, 0.8900, 89, -0.01980161, -0.93522137, -0.37508717, 1.51824129, 3.03512692, 1.72525823, 14.89201736, -60.56120300, 38.32123184, 2.58857584, 1.52977347, 1.60650527, 0.99956185, -0.02239633, -0.01366130, -0.01371261, 0.04653022, 0.89015883, -0.62353939, 87.60900116, 1209.97497559, 39.38999939, 0.00000000
1, 0.9000, 90, -0.02014582, -0.93378991, -0.37729600, 1.10842276, 2.58419967, 1.82250202, 14.48980618, -60.29732513, 38.07381439, 2.59732199, 1.53256953, 1.66400242, 0.99955285, -0.02246540, -0.01369801, -0.01421255, 0.04680682, 0.88853151, -0.62132353, 87.60900116, 1209.97497559, 39.38999939, 0.00000000
1, 0.9100, 91, -0.02297196, -0.93209326, -0.37928388, 0.71623445, 2.46246791, 1.73325109, 14.48980618, -60.29732513, 38.07381439, 2.60340762, 1.52600825, 1.69380367, 0.99954861, -0.02251578, -0.01364739, -0.01447308, 0.04964408, 0.88672400, -0.61933029, 87.60900116, 1209.97497559, 39.38999939, 0.00000000
1, 0.9200, 92, -0.02960391, -0.92721486, -0.38362890, 0.66585612, 2.27537131, 1.60642362, 14.85545158, -60.73711777, 38.24510574, 2.60905242, 1.51989996, 1.72135377, 0.99954468, -0.02256255, -0.01360025, -0.01471394, 0.05616537, 0.88174397, -0.61498356, 87.60900116, 1209.97497559, 39.38999939, 0.00000000
1, 0.9300, 93, -0.03535198, -0.92061746, -0.38592127, 1.02652991, 2.34994817, 1.41352665, 15.76956558, -60.82507324, 38.41639328, 2.61830020, 1.51583612, 1.74908149, 0.99953967, -0.02264048, -0.01357147, -0.01495552, 0.06182346, 0.87501425, -0.61268759, 87.60900116, 1209.97497559, 39.38999939, 0.00000000
1, 0.9400, 94, -0.03685424, -0.92029488, -0.38455081, 1.05071807, 2.20144510, 1.05876422, 15.03827477, -62.40832901, 38.58768082, 2.62791157, 1.51447856, 1.77409506, 0.99953467, -0.02272154, -0.01356584, -0.01517284, 0.06329287, 0.87452114, -0.61405110, 87.60900116, 1209.97497559, 39.38999939, 0.00000000
1, 0.9500, 95, -0.04164398, -0.91833997, -0.38538906, 0.71226567, 2.40947628, 0.76534241, 15.58674240, -59.54967499, 38.47348785, 2.61924410, 1.50658560, 1.82605004, 0.99953032, -0.02264090, -0.01350611, -0.01562863, 0.06804448, 0.87250000, -0.61321086, 87.60900116, 1209.97497559, 39.38999939, 0.00000000
1, 0.9600, 96, -0.04259840, -0.92074007, -0.38880122, 0.71853346, 2.55558157, 0.22346725, 15.58674240, -59.54967499, 38.47348785, 2.62555361, 1.51431072, 1.85092449, 0.99952471, -0.02269190, -0.01357928, -0.01584330, 0.06897040, 0.87499011, -0.60980350, 87.60900116, 1209.97497559, 39.38999939, 0.00000000
1, 0.9700, 97, -0.04653505, -0.92594635, -0.39297375, 0.85254717, 2.32387805, -0.23885009, 15.55017757, -61.79261780, 38.47348785, 2.63334894, 1.52540803, 1.87196600, 0.99951899, -0.02275578, -0.01368133, -0.01602366, 0.07307883, 0.88006657, -0.60562050, 87.60900116, 1209.97497559, 39.38999939, 0.00000000
1, 0.9800, 98, -0.04665735, -0.93538558, -0.39384273, 0.80481517, 2.33062005, -0.67802000, 15.44048595, -60.95701218, 38.56864929, 2.64075494, 1.54058802, 1.89137030, 0.99951315, -0.02281584, -0.01381864, -0.01618895, 0.07343755, 0.88937962, -0.60473937, 87.60900116, 1209.97497559, 39.38999939, 0.00000000
1, 0.9900, 99, -0.04264597, -0.94274265, -0.39335939, 1.44757152, 2.74849701, -0.74151462, 15.22109699, -60.78109741, 38.32123184, 2.65448546, 1.55793691, 1.91479313, 0.99950504, -0.02293020, -0.01397658, -0.01638806, 0.06971857, 0.89655393, -0.60520643, 87.60900116, 1209.97497559, 39.38999939, 0.00000000
1, 1.0000, 100, -0.03573222, -0.95034117, -0.38435397, 2.05417848, 2.76699495, -0.53204215, 15.14796638, -60.03344727, 38.77800369, 2.67788577, 1.57046247, 1.96640849, 0.99949145, -0.02312610, -0.01409960, -0.01683283, 0.06307802, 0.90381515, -0.61418879, 87.60900116, 1209.97497559, 39.38999939, 0.00000000
1, 1.0100, 101, -0.02964549, -0.95362180, -0.37344974, 1.27972603, 2.75693393, -0.28378764, 15.14796638, -60.03344727, 38.77800369, 2.68986273, 1.58360064, 1.99156237, 0.99948376, -0.02322544, -0.01422105, -0.01704803, 0.05719864, 0.90676868, -0.62507200, 87.60900116, 1209.97497559, 39.38999939, 0.00000000
1, 1.0200, 102, -0.02051202, -0.94994241, -0.36615452, -0.39037892, 2.34217215, 0.15206051, 15.22109699, -59.37376022, 38.30220032, 2.68519878, 1.59117270, 2.01350212, 0.99948055, -0.02318086, -0.01429084, -0.01723841, 0.04823652, 0.90305561, -0.63236082, 87.60900116, 1209.97497559, 39.38999939, 0.00000000
1, 1.0300, 103, -0.01226608, -0.94690013, -0.36976567, -2.01617646, 1.53890944, 0.22803915, 15.58674240, -61.52874374, 38.53058243, 2.66451764, 1.59501433, 2.02729249, 0.99948215, -0.02299815, -0.01432400, -0.01736048, 0.04008167, 0.90027601, -0.62875950, 87.60900116, 1209.97497559, 39.38999939, 0.00000000
1, 1.0400, 104, -0.00611295, -0.94191676, -0.37470874, -2.87575531, 1.03071451, 0.46608150, 16.39115906, -61.57272339, 38.89219284, 2.63537359, 1.59474456, 2.03676701, 0.99948663, -0.02274281, -0.01431911, -0.01744681, 0.03394716, 0.89575291, -0.62383729, 87.60900116, 1209.97497559, 39.38999939, 0.00000000
1, 1.0500, 105, -0.00300318, -0.94130844, -0.37759343, -3.50339293, 0.92172760, 0.53602391, 15.58674240, -61.30884552, 38.66381073, 2.60033107, 1.61779785, 2.06636310, 0.99948621, -0.02242977, -0.01452064, -0.01770472, 0.03092656, 0.89572132, -0.62097663, 87.60900116, 1209.97497559, 39.38999939, 0.00000000
1, 1.0600, 106, -0.00140146, -0.94344246, -0.38002193, -3.86472344, 1.59188378, 0.30512238, 15.58674240, -61.30884552, 38.66381073, 2.56116390, 1.62121403, 2.07977509, 0.99949139, -0.02208590, -0.01454697, -0.01782599, 0.02966558, 0.89852077, -0.61856866, 87.60900116, 1209.97497559, 39.38999939, 0.00000000
1, 1.0700, 107, -0.00304835, -0.94634551, -0.38113764, -3.32969642, 2.07810116, 0.20823753, 15.25766277, -59.63763428, 38.22607422, 2.52720094, 1.62738466, 2.09762979, 0.99949425, -0.02178640, -0.01459891, -0.01798483, 0.03140006, 0.90205395, -0.61747867, 87.60900116, 1209.97497559, 39.38999939, 0.00000000
1, 1.0800, 108, -0.00410856, -0.94474441, -0.38316843, -2.98962688, 2.39210296, 0.05559367, 15.58674240, -60.03344727, 38.72090530, 2.49657249, 1.63618076, 2.11800003, 0.99949580, -0.02151521, -0.01467464, -0.01816472, 0.03260395, 0.90100306, -0.61546803, 87.60900116, 1209.97497559, 39.38999939, 0.00000000
1, 1.0900, 109, -0.00879149, -0.93992722, -0.38367736, -3.45026469, 2.15231824, -0.19413431, 15.14796638, -61.13293076, 38.91122437, 2.46144438, 1.64637601, 2.13490343, 0.99949837, -0.02120497, -0.01476113, -0.01831472, 0.03746021, 0.89676136, -0.61497915, 87.60900116, 1209.97497559, 39.38999939, 0.00000000
1, 1.1000, 110, -0.01437028, -0.93628663, -0.38583520, -4.32176161, 1.49505186, -0.29317737, 15.36735439, -61.70465851, 38.49252319, 2.41345954, 1.66602588, 2.16877532, 0.99949938, -0.02077877, -0.01493099, -0.01861268, 0.04325246, 0.89383703, -0.61284578, 87.60900116, 1209.97497559, 39.38999939, 0.00000000
1, 1.1100, 111, -0.02090926, -0.92964411, -0.38982812, -4.65322590, 0.53239667, -0.34755847, 15.36735439, -61.70465851, 38.49252319, 2.36683178, 1.67141664, 2.16940475, 0.99950701, -0.02037108, -0.01497055, -0.01862326, 0.05004205, 0.88807136, -0.60888243, 87.60900116, 1209.97497559, 39.38999939, 0.00000000
1, 1.1200, 112, -0.02475197, -0.92600322, -0.39233625, -3.85453224, -0.47285351, -0.40629309, 15.14796638, -60.86905289, 38.70186996, 2.32849336, 1.67341769, 2.16105413, 0.99951488, -0.02003744, -0.01498031, -0.01855507, 0.05395046, 0.88515264, -0.60640228, 87.60900116, 1209.97497559, 39.38999939, 0.00000000
1, 1.1300, 113, -0.02986800, -0.92053318, -0.39407596, -2.91658926, -0.96182209, -0.48975629, 15.84269142, -59.85753250, 38.39736176, 2.29969597, 1.67426479, 2.14846230, 0.99952173, -0.01978776, -0.01498086, -0.01844886, 0.05907866, 0.88024825, -0.60468519, 87.60900116, 1209.97497559, 39.38999939, 0.00000000
1, 1.1400, 114, -0.03280008, -0.91904610, -0.39049739, -2.77150869, -0.92409861, -0.63003349, 15.95238781, -59.90151215, 38.75896835, 2.27237010, 1.67654204, 2.13577485, 0.99952823, -0.01955069, -0.01499416, -0.01834136, 0.06204500, 0.87923598, -0.60828179, 87.60900116, 1209.97497559, 39.38999939, 0.00000000
1, 1.1500, 115, -0.03284067, -0.92312813, -0.39271167, -3.25777912, -0.72235054, -0.60672575, 15.44048595, -59.59365463, 38.56864929, 2.23108959, 1.68051136, 2.14980960, 0.99953246, -0.01918812, -0.01502452, -0.01846850, 0.06213078, 0.88387692, -0.60608828, 87.60900116, 1209.97497559, 39.38999939, 0.00000000
1, 1.1600, 116, -0.02664643, -0.92427677, -0.38748315, -3.90589690, -0.71312779, -0.42876565, 15.58674240, -59.90151215, 38.73993683, 2.19231606, 1.68176663, 2.13912416, 0.99954039, -0.01885111, -0.01502746, -0.01838016, 0.05599169, 0.88577068, -0.61134422, 87.60900116, 1209.97497559, 39.38999939, 0.00000000
1, 1.1700, 117, -0.02751873, -0.92510688, -0.37799117, -4.84544659, -0.45144367, -0.08640135, 15.58674240, -59.90151215, 38.73993683, 2.14400744, 1.68091106, 2.13158655, 0.99954969, -0.01843086, -0.01501104, -0.01832089, 0.05686174, 0.88738650, -0.62086618, 87.60900116, 1209.97497559, 39.38999939, 0.00000000
1, 1.1800, 118, -0.03177006, -0.92709714, -0.36568296, -4.56674814, 0.18259440, 0.10185883, 15.18453217, -60.34130478, 38.54961777, 2.09827518, 1.68079472, 2.13078141, 0.99955702, -0.01803207, -0.01500259, -0.01831987, 0.06109443, 0.89021635, -0.63320637, 87.60900116, 1209.97497559, 39.38999939, 0.00000000
1, 1.1900, 119, -0.03338376, -0.92847931, -0.36260289, -3.33818722, 1.25691986, 0.05037272, 15.36735439, -60.56120300, 38.45445633, 2.06451058, 1.68534350, 2.14041638, 0.99956024, -0.01773554, -0.01503836, -0.01840761, 0.06276186, 0.89226556, -0.63630927, 87.60900116, 1209.97497559, 39.38999939, 0.00000000
1, 1.2000, 120, -0.03578648, -0.93308657, -0.36266217, -2.35765743, 1.62200034, 0.23083092, 15.44048595, -59.94548798, 38.14994431, 2.07294512, 1.67769754, 2.18643475, 0.99955231, -0.01780436, -0.01498017, -0.01880914, 0.06519073, 0.89720470, -0.63626117, 87.60900116, 1209.97497559, 39.38999939, 0.00000000
1, 1.2100, 121, -0.03471328, -0.93837655, -0.36259606, -2.50516248, 1.58141136, 0.54683852, 15.29422855, -60.20936584, 38.28316879, 2.04734421, 1.67893994, 2.20151687, 0.99955374, -0.01757887, -0.01498912, -0.01894385, 0.06400912, 0.90249008, -0.63633031, 87.60900116, 1209.97497559, 39.38999939, 0.00000000
1, 1.2200, 122, -0.03565557, -0.94172186, -0.36204576, -3.16881466, 1.24657822, 0.77034771, 15.29422855, -60.20936584, 38.28316879, 2.01516438, 1.67682827, 2.21398640, 0.99955678, -0.01729690, -0.01496726, -0.01905715, 0.06493375, 0.90634859, -0.63689947, 87.60900116, 1209.97497559, 39.38999939, 0.00000000
1, 1.2300, 123, -0.03507841, -0.94425899, -0.36698058, -4.15936232, 1.14705896, 1.14043081, 15.84269142, -59.81355286, 38.51155472, 1.97305751, 1.67095578, 2.22638655, 0.99956173, -0.01692900, -0.01491086, -0.01917171, 0.06428230, 0.90956151, -0.63199049, 87.60900116, 1209.97497559, 39.38999939, 0.00000000
1, 1.2400, 124, -0.03076631, -0.94484353, -0.37438363, -4.69354343, 0.78320324, 1.09925914, 15.22109699, -61.79261780, 38.22607422, 1.92572856, 1.66404831, 2.23494792, 0.99956799, -0.01651623, -0.01484392, -0.01925358, 0.05985248, 0.91094053, -0.62461817, 87.60900116, 1209.97497559, 39.38999939, 0.00000000
1, 1.2500, 125, -0.02806604, -0.95010728, -0.37645337, -5.19405937, 0.36501855, 1.25020349, 15.36735439, -61.04496765, 38.32123184, 1.88706601, 1.65614104, 2.26671243, 0.99956912, -0.01617625, -0.01477294, -0.01953682, 0.05701208, 0.91701615, -0.62257969, 87.60900116, 1209.97497559, 39.38999939, 0.00000000
1, 1.2600, 126, -0.02371602, -0.95110786, -0.37662840, -5.55106926, -0.13866416, 1.45164633, 15.07484055, -59.90151215, 37.97865677, 1.83138311, 1.64237773, 2.26768160, 0.99957836, -0.01569281, -0.01464352, -0.01955440, 0.05247222, 0.91879463, -0.62243563, 87.60900116, 1209.97497559, 39.38999939, 0.00000000
1, 1.2700, 127, -0.02435775, -0.94411504, -0.37600067, -5.98367882, -0.11002745, 1.59419858, 15.07484055, -59.90151215, 37.97865677, 1.77135277, 1.62742805, 2.26921868, 0.99958807, -0.01517158, -0.01450307, -0.01957753, 0.05285548, 0.91281945, -0.62310314, 87.60900116, 1209.97497559, 39.38999939, 0.00000000
1, 1.2800, 128, -0.02685116, -0.93553489, -0.37528950, -6.18296337, 0.35412881, 1.44636190, 15.40392017, -62.67220306, 38.24510574, 1.70919764, 1.61568666, 2.27431250, 0.99959671, -0.01463081, -0.01439068, -0.01963138, 0.05512043, 0.90530866, -0.62385374, 87.60900116, 1209.97497559, 39.38999939, 0.00000000
1, 1.2900, 129, -0.03113553, -0.92864239, -0.37556377, -6.07927465, 1.32125914, 1.11481118, 15.44048595, -59.50569916, 38.20703888, 1.64783120, 1.61084604, 2.28702736, 0.99960279, -0.01409476, -0.01433950, -0.01975062, 0.05926750, 0.89951026, -0.62361574, 87.60900116, 1209.97497559, 39.38999939, 0.00000000
1, 1.3000, 130, -0.03166793, -0.92102081, -0.37803799, -5.34530687, 2.05374813, 0.74124229, 16.09864616, -61.13293076, 38.66381073, 1.59792352, 1.61071169, 2.33026576, 0.99960124, -0.01365402, -0.01433488, -0.02013406, 0.05978285, 0.89285100, -0.62116969, 87.60900116, 1209.97497559, 39.38999939, 0.00000000
1, 1.3100, 131, -0.02615002, -0.91191500, -0.37415868, -5.37293625, 1.76846015, 0.33102784, 15.87925720, -59.85753250, 38.01671982, 1.54360878, 1.61485612, 2.34438872, 0.99960470, -0.01317771, -0.01436311, -0.02026355, 0.05429856, 0.88462770, -0.62507254, 87.60900116, 1209.97497559, 39.38999939, 0.00000000
1, 1.3200, 132, -0.02044941, -0.91168231, -0.36803335, -5.76190758, 1.85857892, -0.12292325, 15.87925720, -59.85753250, 38.01671982, 1.48544037, 1.62353981, 2.35725832, 0.99960786, -0.01266711, -0.01443000, -0.02038210, 0.04872074, 0.88538688, -0.63122100, 87.60900116, 1209.97497559, 39.38999939, 0.00000000
1, 1.3300, 133, -0.01681166, -0.91078490, -0.37531009, -5.39796829, 1.52091634, -0.28934059, 15.62330818, -58.97794724, 38.56864929, 1.43104386, 1.63239992, 2.36659026, 0.99961102, -0.01218981, -0.01449860, -0.02046937, 0.04524410, 0.88547724, -0.62396520, 87.60900116, 1209.97497559, 39.38999939, 0.00000000
1, 1.3400, 134, -0.01018110, -0.91925853, -0.37505224, -5.41280746, 1.07365739, -0.22838503, 15.44048595, -59.50569916, 38.09284973, 1.37661791, 1.63889992, 2.37206483, 0.99961501, -0.01171316, -0.01454614, -0.02052331, 0.03874670, 0.89488208, -0.62424237, 87.60900116, 1209.97497559, 39.38999939, 0.00000000
1, 1.3500, 135, -0.00994981, -0.93543035, -0.37590411, -5.86304712, 0.77309853, 0.10066163, 15.22109699, -59.72559738, 38.09284973, 1.33249223, 1.65605485, 2.40147948, 0.99961203, -0.01132135, -0.01469079, -0.02078372, 0.03864738, 0.91199207, -0.62340921, 87.60900116, 1209.97497559, 39.38999939, 0.00000000
1, 1.3600, 136, -0.00985258, -0.94964606, -0.37917411, -5.43321371, 0.13437217, 0.54295397, 15.98895359, -60.60517502, 38.28316879, 1.27805161, 1.65170896, 2.40147829, 0.99961782, -0.01084724, -0.01464300, -0.02079111, 0.03871883, 0.92701608, -0.62015295, 87.60900116, 1209.97497559, 39.38999939, 0.00000000
1, 1.3700, 137, -0.00574135, -0.95924824, -0.37535200, -4.45924091, -0.85690325, 0.76522970, 15.98895359, -60.60517502, 38.28316879, 1.23361576, 1.64129913, 2.39395094, 0.99962461, -0.01046249, -0.01454344, -0.02073213, 0.03446192, 0.93744206, -0.62399757, 87.60900116, 1209.97497559, 39.38999939, 0.00000000
1, 1.3800, 138, -0.00327791, -0.95665097, -0.37142965, -4.58230543, -1.53114450, 1.01510572, 15.36735439, -60.42926025, 38.32123184, 1.18812895, 1.62586451, 2.38121819, 0.99963289, -0.01007012, -0.01439946, -0.02062827, 0.03175122, 0.93562919, -0.62794387, 87.60900116, 1209.97497559, 39.38999939, 0.00000000
1, 1.3900, 139, -0.00914263, -0.94601482, -0.37477121, -4.84648228, -1.44090033, 0.61351037, 15.11140537, -60.78109741, 38.03575134, 1.14002454, 1.61444974, 2.36751604, 0.99964088, -0.00965428, -0.01429006, -0.02051580, 0.03738750, 0.92580342, -0.62462544, 87.60900116, 1209.97497559, 39.38999939, 0.00000000
1, 1.4000, 140, -0.01894591, -0.93514436, -0.38123098, -5.51720142, -1.91907382, 0.14847365, 15.29422855, -59.46171951, 38.32123184, 1.09756255, 1.60641599, 2.37421536, 0.99964416, -0.00928449, -0.01421292, -0.02058023, 0.04702394, 0.91578764, -0.61818731, 87.60900116, 1209.97497559, 39.38999939, 0.00000000
1, 1.4100, 141, -0.02708359, -0.92922795, -0.38512349, -6.56354141, -2.74583578, -0.16453759, 15.00170898, -59.59365463, 37.71220779, 1.03283525, 1.59677124, 2.34438586, 0.99965572, -0.00872526, -0.01411489, -0.02032882, 0.05501572, 0.91076583, -0.61431575, 87.60900116, 1209.97497559, 39.38999939, 0.00000000
1, 1.4200, 142, -0.02977826, -0.92458642, -0.38619652, -7.97184229, -3.37129760, -0.36673936, 15.44048595, -59.59365463, 38.28316879, 0.95426118, 1.58638811, 2.30715680, 0.99966919, -0.00804622, -0.01400775, -0.02001449, 0.05753519, 0.90741473, -0.61327064, 87.60900116, 1209.97497559, 39.38999939, 0.00000000
1, 1.4300, 143, -0.03269653, -0.91864789, -0.39249337, -9.00942326, -3.80999613, -0.26731774, 15.44048595, -61.30884552, 38.28316879, 0.86543924, 1.57324564, 2.26570368, 0.99968386, -0.00727870, -0.01387495, -0.01966461, 0.06023745, 0.90295112, -0.60700393, 87.60900116, 1209.97497559, 39.38999939, 0.00000000
1, 1.4400, 144, -0.04102728, -0.91718817, -0.39817375, -9.84452343, -3.25644398, 0.11601982, 15.14796638, -59.50569916, 38.43542480, 0.76805484, 1.55884004, 2.23036122, 0.99969739, -0.00643586, -0.01373057, -0.01936894, 0.06833225, 0.90313756, -0.60135448, 87.60900116, 1209.97497559, 39.38999939, 0.00000000
1, 1.4500, 145, -0.04526014, -0.91467005, -0.40730938, -10.07849789, -2.37879610, 0.90863276, 15.40392017, -60.60517502, 38.09284973, 0.66155446, 1.53239870, 2.23069382, 0.99970603, -0.00551122, -0.01348191, -0.01938599, 0.07223754, 0.90239090, -0.59225106, 87.60900116, 1209.97497559, 39.38999939, 0.00000000
1, 1.4600, 146, -0.04704941, -0.92645872, -0.41159794, -9.81061554, -1.44546437, 1.68330240, 15.22109699, -59.81355286, 37.50285721, 0.56369716, 1.51114535, 2.21837115, 0.99971485, -0.00466255, -0.01327943, -0.01929095, 0.07355687, 0.91598791, -0.58799571, 87.60900116, 1209.97497559, 39.38999939, 0.00000000
1, 1.4700, 147, -0.03871014, -0.93240511, -0.40951881, -9.10787392, -0.33006451, 2.02101183, 14.85545158, -61.17690277, 37.84543228, 0.47242478, 1.49145508, 2.21805024, 0.99972063, -0.00386965, -0.01309227, -0.01929948, 0.06486560, 0.92358494, -0.59010011, 87.60900116, 1209.97497559, 39.38999939, 0.00000000
1, 1.4800, 148, -0.03139917, -0.93894017, -0.40188599, -7.66388702, 0.50351787, 2.10443163, 14.85545158, -61.17690277, 37.84543228, 0.39533049, 1.47449422, 2.22658801, 0.99972343, -0.00319897, -0.01293155, -0.01938331, 0.05724388, 0.93156749, -0.59775269, 87.60900116, 1209.97497559, 39.38999939, 0.00000000
1, 1.4900, 149, -0.02283069, -0.94550413, -0.38922438, -6.10722971, 1.04921293, 2.00567102, 14.85545158, -58.62611389, 37.29350281, 0.33360270, 1.46071982, 2.24065351, 0.99972421, -0.00266121, -0.01280126, -0.01951337, 0.04840180, 0.93929678, -0.61042929, 87.60900116, 1209.97497559, 39.38999939, 0.00000000
1, 1.5000, 150, -0.01553060, -0.94020772, -0.38769135, -5.34987354, 0.88674605, 1.80657661, 14.92858315, -59.06590652, 37.35059738, 0.29920149, 1.45899773, 2.28026843, 0.99971831, -0.00235696, -0.01278120, -0.01986286, 0.04093007, 0.93488473, -0.61197186, 87.60900116, 1209.97497559, 39.38999939, 0.00000000
1, 1.5100, 151, -0.01016526, -0.93783128, -0.38250813, -6.37498903, -0.00533456, 1.29876566, 15.55017757, -60.25334549, 38.11188126, 0.23526536, 1.44721413, 2.28166175, 0.99972051, -0.00180106, -0.01266733, -0.01988238, 0.03549851, 0.93328768, -0.61716062, 87.60900116, 1209.97497559, 39.38999939, 0.00000000
1, 1.5200, 152, -0.01527898, -0.92884874, -0.37283829, -8.24265671, -1.19848990, 0.96298647, 15.73299980, -59.98946762, 37.50285721, 0.15313040, 1.43344069, 2.26968193, 0.99972510, -0.00108821, -0.01253280, -0.01978713, 0.04038756, 0.92561287, -0.62684107, 87.60900116, 1209.97497559, 39.38999939, 0.00000000
1, 1.5300, 153, -0.02336324, -0.91988826, -0.37046242, -10.12681198, -2.68481612, 0.70898551, 15.73299980, -59.98946762, 37.50285721, 0.05271733, 1.41564727, 2.24202585, 0.99973238, -0.00021824, -0.01236017, -0.01955693, 0.04818620, 0.91829479, -0.62922806, 87.60900116, 1209.97497559, 39.38999939, 0.00000000
1, 1.5400, 154, -0.03458960, -0.91115570, -0.38393748, -10.67442989, -3.40758777, 0.57241762, 15.14796638, -61.00099564, 37.69317627, -0.05288297, 1.39596105, 2.20694494, 0.99974024, 0.00069597, -0.01217061, -0.01926222, 0.05908122, 0.91138744, -0.61576235, 87.60900116, 1209.97497559, 39.38999939, 0.00000000
1, 1.5500, 155, -0.03899720, -0.89777207, -0.39995077, -10.13550854, -3.64493847, 0.65367007, 14.52637196, -61.35282516, 37.54092026, -0.15447237, 1.36844945, 2.19619918, 0.99974388, 0.00157653, -0.01191365, -0.01917898, 0.06310242, 0.89980435, -0.59975642, 87.60900116, 1209.97497559, 39.38999939, 0.00000000
1, 1.5600, 156, -0.04466457, -0.89335477, -0.41496524, -9.94248104, -3.18026614, 0.66284871, 15.18453217, -59.76956940, 37.50285721, -0.25281525, 1.34880447, 2.16408777, 0.99974948, 0.00242795, -0.01172647, -0.01890871, 0.06832699, 0.89711964, -0.58474755, 87.60900116, 1209.97497559, 39.38999939, 0.00000000
1, 1.5700, 157, -0.04656477, -0.89006287, -0.43053123, -9.67974663, -2.19729590, 0.48934898, 15.07484055, -60.51721954, 37.40769577, -0.34884804, 1.33490324, 2.14028502, 0.99975252, 0.00326109, -0.01159002, -0.01871052, 0.06994745, 0.89552987, -0.56918025, 87.60900116, 1209.97497559, 39.38999939, 0.00000000
1, 1.5800, 158, -0.04344764, -0.88604605, -0.43696055, -7.02217817, -0.66746294, 0.54853666, 15.07484055, -60.51721954, 37.40769577, -0.41888654, 1.32704449, 2.13221431, 0.99975240, 0.00387005, -0.01151029, -0.01864695, 0.06665270, 0.89292562, -0.56274647, 87.60900116, 1209.97497559, 39.38999939, 0.00000000
1, 1.5900, 159, -0.04084756, -0.88509589, -0.43877146, -4.50870895, 1.12054205, 0.49054495, 15.03827477, -58.49417496, 37.46479034, -0.46443695, 1.32744527, 2.14157772, 0.99974924, 0.00426846, -0.01150603, -0.01873323, 0.06400809, 0.89293581, -0.56092960, 87.60900116, 1209.97497559, 39.38999939, 0.00000000
1, 1.6000, 160, -0.03933516, -0.89134115, -0.43763050, -3.34580636, 1.95875084, 0.15304275, 15.22109699, -61.88057327, 36.95092773, -0.51492912, 1.33106971, 2.18285418, 0.99974012, 0.00471372, -0.01152770, -0.01909855, 0.06255789, 0.89989376, -0.56206322, 87.60900116, 1209.97497559, 39.38999939, 0.00000000
1, 1.6100, 161, -0.03532704, -0.90392399, -0.43435392, -3.08877206, 2.00247645, -0.30386052, 14.74575996, -60.78109741, 37.65511322, -0.54646885, 1.34248114, 2.19759893, 0.99973512, 0.00499227, -0.01162136, -0.01923081, 0.05867632, 0.91325617, -0.56532991, 87.60900116, 1209.97497559, 39.38999939, 0.00000000
1, 1.6200, 162, -0.03225841, -0.91609752, -0.42690018, -3.32199430, 0.58255750, -0.68456513, 14.59950256, -58.53815460, 37.31253433, -0.57975769, 1.35115516, 2.19778156, 0.99973267, 0.00528416, -0.01169144, -0.01923615, 0.05579012, 0.92598802, -0.57277405, 87.60900116, 1209.97497559, 39.38999939, 0.00000000
1, 1.6300, 163, -0.03451717, -0.92735988, -0.42426720, -3.95088625, -0.98054403, -0.89128613, 14.59950256, -58.53815460, 37.31253433, -0.61875224, 1.35488915, 2.18260384, 0.99973291, 0.00562343, -0.01171821, -0.01910787, 0.05814955, 0.93788958, -0.57539803, 87.60900116, 1209.97497559, 39.38999939, 0.00000000
1, 1.6400, 164, -0.03719676, -0.94283044, -0.42985341, -5.08726692, -2.51929688, -0.72679794, 14.96514320, -59.10988617, 37.21737671, -0.66856974, 1.35042024, 2.15360045, 0.99973571, 0.00605436, -0.01167245, -0.01885971, 0.06080665, 0.95415461, -0.56980360, 87.60900116, 1209.97497559, 39.38999939, 0.00000000
1, 1.6500, 165, -0.03893628, -0.95368278, -0.44536519, -5.37303734, -3.80317426, 0.00295178, 15.51361179, -60.42926025, 36.96995926, -0.72602862, 1.33348310, 2.14073181, 0.99973643, 0.00655159, -0.01151596, -0.01875239, 0.06233494, 0.96594977, -0.55428576, 87.60900116, 1209.97497559, 39.38999939, 0.00000000
1, 1.6600, 166, -0.03236496, -0.95804560, -0.45667827, -5.50086021, -4.70842552, 0.74017829, 15.40392017, -59.54967499, 36.95092773, -0.77942717, 1.30618322, 2.09823275, 0.99974287, 0.00700884, -0.01127165, -0.01838541, 0.05535146, 0.97128218, -0.54296982, 87.60900116, 1209.97497559, 39.38999939, 0.00000000
1, 1.6700, 167, -0.03398975, -0.95467311, -0.45747179, -6.74474144, -5.41943121, 1.66068685, 15.22109699, -59.41773987, 37.14124680, -0.84511030, 1.26744127, 2.05262494, 0.99974984, 0.00757138, -0.01092612, -0.01799154, 0.05637200, 0.96895695, -0.54217565, 87.60900116, 1209.97497559, 39.38999939, 0.00000000
1, 1.6800, 168, -0.03666181, -0.94908357, -0.46659914, -8.85023117, -5.63545990, 2.33056307, 15.22109699, -59.41773987, 37.14124680, -0.93183386, 1.22165537, 2.00673914, 0.99975532, 0.00831666, -0.01051638, -0.01759630, 0.05828833, 0.96475130, -0.53304410, 87.60900116, 1209.97497559, 39.38999939, 0.00000000
1, 1.6900, 169, -0.03418846, -0.92880929, -0.48205712, -10.37503529, -5.82152557, 2.48952198, 15.18453217, -58.71406937, 36.85576630, -1.03372455, 1.17352509, 1.95900798, 0.99975926, 0.00919409, -0.01008464, -0.01718551, 0.05498353, 0.94616485, -0.51757586, 87.60900116, 1209.97497559, 39.38999939, 0.00000000
1, 1.7000, 170, -0.03247692, -0.90385950, -0.49302852, -11.23136997, -5.77108860, 2.14163637, 14.78232574, -58.80202866, 36.96995926, -1.16652369, 1.12841535, 1.93184245, 0.99975598, 0.01034371, -0.00967361, -0.01695624, 0.05246124, 0.92319638, -0.50658453, 87.60900116, 1209.97497559, 39.38999939, 0.00000000
1, 1.7100, 171, -0.03261150, -0.87426752, -0.51023275, -11.34217739, -6.01475143, 1.24035895, 15.14796638, -58.80202866, 37.16028214, -1.27770066, 1.09039700, 1.87642455, 0.99975675, 0.01130360, -0.00933093, -0.01647848, 0.05187595, 0.89583117, -0.48934895, 87.60900116, 1209.97497559, 39.38999939, 0.00000000
1, 1.7200, 172, -0.03570780, -0.83751261, -0.51634139, -10.61368275, -6.54693699, -0.51331115, 14.96514320, -60.78109741, 36.77964020, -1.38101172, 1.06560016, 1.80896771, 0.99975783, 0.01219606, -0.00910692, -0.01589578, 0.05444612, 0.86094207, -0.48320830, 87.60900116, 1209.97497559, 39.38999939, 0.00000000
1, 1.7300, 173, -0.04366133, -0.82028973, -0.51190490, -10.32519245, -7.99173689, -2.28482151, 14.70919418, -59.68161774, 37.04608917, -1.48051345, 1.05005682, 1.72092509, 0.99976003, 0.01305515, -0.00896754, -0.01513382, 0.06207286, 0.84547824, -0.48760813, 87.60900116, 1209.97497559, 39.38999939, 0.00000000
1, 1.7400, 174, -0.04579001, -0.81813377, -0.50942045, -9.48751354, -8.59054470, -4.11053944, 14.70919418, -59.68161774, 37.04608917, -1.57105088, 1.04800117, 1.61990786, 0.99976254, 0.01383689, -0.00894984, -0.01425933, 0.06407791, 0.84496546, -0.49005216, 87.60900116, 1209.97497559, 39.38999939, 0.00000000
1, 1.7500, 175, -0.05056464, -0.82062882, -0.49650621, -7.73044777, -8.55597973, -5.39840555, 14.41668034, -58.31825638, 36.64641571, -1.66976929, 1.05106771, 1.53790700, 0.99976003, 0.01469212, -0.00897483, -0.01355201, 0.06891347, 0.84897941, -0.50292319, 87.60900116, 1209.97497559, 39.38999939, 0.00000000
1, 1.7600, 176, -0.05582174, -0.82172149, -0.48404872, -6.41699600, -7.50021076, -6.38219213, 15.25766277, -59.02192688, 36.53222275, -1.72966576, 1.07395327, 1.43827569, 0.99976170, 0.01520937, -0.00918063, -0.01269045, 0.07440037, 0.85154134, -0.51533389, 87.60900116, 1209.97497559, 39.38999939, 0.00000000
1, 1.7700, 177, -0.06099433, -0.81989014, -0.46147728, -3.11719728, -6.22556973, -7.20924950, 15.47705078, -58.49417496, 36.93189621, -1.75700247, 1.10997581, 1.34831429, 0.99976468, 0.01544431, -0.00950401, -0.01191255, 0.08010907, 0.85039699, -0.53787446, 87.60900116, 1209.97497559, 39.38999939, 0.00000000
1, 1.7800, 178, -0.06782796, -0.81182593, -0.43346405, -1.42517900, -3.90255809, -7.85114336, 14.81888676, -59.10988617, 36.66544724, -1.76830423, 1.16224647, 1.27716160, 0.99976575, 0.01554202, -0.00996853, -0.01129970, 0.08774806, 0.84262478, -0.56586301, 87.60900116, 1209.97497559, 39.38999939, 0.00000000
1, 1.7900, 179, -0.06881116, -0.81547517, -0.40934771, -0.98783350, -0.62157428, -7.85381508, 14.81888676, -59.10988617, 36.66544724, -1.77656674, 1.22941339, 1.23546481, 0.99976242, 0.01561670, -0.01055940, -0.01094565, 0.08981488, 0.84641725, -0.58995271, 87.60900116, 1209.97497559, 39.38999939, 0.00000000
1, 1.8000, 180, -0.07418413, -0.83469641, -0.41151339, -1.29516780, 2.29568553, -6.94778490, 15.22109699, -58.05438614, 36.68447876, -1.79133105, 1.28033888, 1.25389397, 0.99975371, 0.01575200, -0.01099976, -0.01111469, 0.09633578, 0.86583298, -0.58775622, 87.60900116, 1209.97497559, 39.38999939, 0.00000000
1, 1.8100, 181, -0.06506720, -0.89379036, -0.42780629, -0.95010376, 4.44222307, -4.75915813, 15.14796638, -58.80202866, 36.41803360, -1.80167222, 1.34288967, 1.27125037, 0.99974418, 0.01584984, -0.01154208, -0.01127562, 0.08812205, 0.92517698, -0.57143509, 87.60900116, 1209.97497559, 39.38999939, 0.00000000
1, 1.8200, 182, -0.04649034, -0.95722264, -0.43848866, 1.51944947, 5.58886385, -1.26210356, 14.81888676, -57.48265076, 36.43706512, -1.78828597, 1.37952518, 1.31620252, 0.99973774, 0.01574119, -0.01185685, -0.01167139, 0.07037289, 0.98854607, -0.56073529, 87.60900116, 1209.97497559, 39.38999939, 0.00000000
1, 1.8300, 183, -0.03221717, -0.99628496, -0.43227449, 3.69563460, 5.96277237, 3.18641067, 14.27041817, -57.70254898, 36.58932114, -1.75397575, 1.37822235, 1.38600779, 0.99973518, 0.01544894, -0.01183957, -0.01227668, 0.05633066, 1.02711987, -0.56695908, 87.60900116, 1209.97497559, 39.38999939, 0.00000000
1, 1.8400, 184, -0.02491322, -1.00084627, -0.42019695, 3.75685048, 7.04937792, 7.11145258, 14.27041817, -57.70254898, 36.58932114, -1.72008324, 1.34680831, 1.48326850, 0.99973226, 0.01515980, -0.01155627, -0.01311764, 0.04864726, 1.03106749, -0.57906437, 87.60900116, 1209.97497559, 39.38999939, 0.00000000
1, 1.8500, 185, -0.02946719, -0.98840749, -0.42452663, 1.94120741, 9.86199379, 9.51405430, 14.59950256, -57.74652863, 36.55125427, -1.70209086, 1.30379987, 1.64121544, 0.99972010, 0.01501344, -0.01116242, -0.01448828, 0.05252657, 1.01820099, -0.57476342, 87.60900116, 1209.97497559, 39.38999939, 0.00000000
1, 1.8600, 186, -0.04065119, -0.95449543, -0.44963577, -1.46020830, 12.51802826, 11.28539848, 14.89201736, -59.41773987, 36.39899826, -1.72321165, 1.25975215, 1.80270636, 0.99970025, 0.01520743, -0.01075405, -0.01589349, 0.06293241, 0.98436624, -0.54966962, 87.60900116, 1209.97497559, 39.38999939, 0.00000000
1, 1.8700, 187, -0.03956205, -0.91128248, -0.46131378, -5.04116821, 12.57919407, 12.14140034, 15.44048595, -59.06590652, 37.10318375, -1.78042352, 1.20838654, 1.96638882, 0.99967378, 0.01571427, -0.01027556, -0.01731992, 0.06099910, 0.94191229, -0.53798699, 87.60900116, 1209.97497559, 39.38999939, 0.00000000
1, 1.8800, 188, -0.03228720, -0.85948509, -0.47024736, -7.05528927, 10.55288124, 11.26120377, 14.52637196, -58.71406937, 36.66544724, -1.85697043, 1.15581691, 2.10685396, 0.99964595, 0.01638626, -0.00978531, -0.01854479, 0.05279930, 0.89136934, -0.52903360, 87.60900116, 1209.97497559, 39.38999939, 0.00000000
1, 1.8900, 189, -0.02008785, -0.81981838, -0.48259863, -7.77968407, 7.27689838, 8.69842720, 14.52637196, -58.71406937, 36.66544724, -1.93913555, 1.11133635, 2.20615602, 0.99962145, 0.01710408, -0.00936916, -0.01941156, 0.03975465, 0.85310394, -0.51665360, 87.60900116, 1209.97497559, 39.38999939, 0.00000000
1, 1.9000, 190, -0.01562046, -0.80319744, -0.49649185, -7.89767933, 3.84950042, 5.18138266, 14.27041817, -58.84601212, 36.96995926, -2.05916548, 1.08818269, 2.28151822, 0.99959201, 0.01815329, -0.00913491, -0.02007517, 0.03470140, 0.83809495, -0.50271666, 87.60900116, 1209.97497559, 39.38999939, 0.00000000
1, 1.9100, 191, -0.02687514, -0.80145937, -0.49731001, -6.69137764, 1.55632806, 1.13920438, 14.63606358, -60.38528061, 37.14124680, -2.12685871, 1.08503115, 2.29632258, 0.99957871, 0.01874441, -0.00909313, -0.02020919, 0.04579286, 0.83814919, -0.50183755, 87.60900116, 1209.97497559, 39.38999939, 0.00000000
1, 1.9200, 192, -0.04293287, -0.81467009, -0.48425737, -5.11721659, 1.43662941, -2.36621237, 15.11140537, -59.72559738, 37.19834518, -2.17814088, 1.11252630, 2.29498005, 0.99956810, 0.01919639, -0.00932415, -0.02020606, 0.06212616, 0.85235298, -0.51484799, 87.60900116, 1209.97497559, 39.38999939, 0.00000000
1, 1.9300, 193, -0.04627459, -0.84467864, -0.46509412, -3.13346553, 2.09328794, -4.87217474, 14.96514320, -58.62611389, 36.87480164, -2.20942330, 1.16534102, 2.28918767, 0.99955910, 0.01947791, -0.00978032, -0.02016687, 0.06623282, 0.88304782, -0.53397012, 87.60900116, 1209.97497559, 39.38999939, 0.00000000
1, 1.9400, 194, -0.04185472, -0.88381249, -0.45372668, 0.52894020, 4.74138546, -5.56599665, 14.96514320, -58.62611389, 36.87480164, -2.20500398, 1.23658884, 2.30596232, 0.99955010, 0.01945318, -0.01039973, -0.02032465, 0.06295376, 0.92236781, -0.54530692, 87.60900116, 1209.97497559, 39.38999939, 0.00000000
1, 1.9500, 195, -0.03578354, -0.92456901, -0.44429129, 5.34977102, 7.88928080, -4.77627850, 15.25766277, -59.02192688, 37.38866425, -2.15137601, 1.31219053, 2.38197207, 0.99953783, 0.01900587, -0.01105610, -0.02099502, 0.05821170, 0.96252054, -0.55473650, 87.60900116, 1209.97497559, 39.38999939, 0.00000000
1, 1.9600, 196, -0.03944963, -0.95618933, -0.42766616, 8.26282024, 11.28763866, -2.35825253, 15.11140537, -59.41773987, 37.29350281, -2.07247758, 1.38510001, 2.47650409, 0.99952531, 0.01834040, -0.01169140, -0.02182331, 0.06316031, 0.99286824, -0.57137948, 87.60900116, 1209.97497559, 39.38999939, 0.00000000
1, 1.9700, 197, -0.04841717, -0.97400999, -0.41733828, 7.77569628, 14.80232048, 0.77575547, 15.44048595, -59.37376022, 37.25543976, -2.00006700, 1.44607687, 2.61634254, 0.99950254, 0.01773510, -0.01221543, -0.02304479, 0.07326967, 1.00935340, -0.58172774, 87.60900116, 1209.97497559, 39.38999939, 0.00000000
1, 1.9800, 198, -0.05406632, -0.97607696, -0.41519946, 5.18913317, 17.81338692, 4.32747889, 15.65986919, -59.90151215, 36.95092773, -1.95494473, 1.48899126, 2.79755497, 0.99946684, 0.01736989, -0.01257137, -0.02462682, 0.07979618, 1.01042247, -0.58387929, 87.60900116, 1209.97497559, 39.38999939, 0.00000000
1, 1.9900, 199, -0.05395232, -0.96009868, -0.42911407, 1.42955637, 19.66592979, 7.85843611, 15.03827477, -59.90151215, 37.14124680, -1.94846606, 1.50877106, 3.00896168, 0.99941826, 0.01734104, -0.01271331, -0.02647283, 0.08018669, 0.99407840, -0.56996405, 87.60900116, 1209.97497559, 39.38999939, 0.00000000
1, 2.0000, 200, -0.04953461, -0.93253547, -0.44289863, -1.62433505, 19.85345078, 10.70182896, 15.03827477, -58.62611389, 37.14124680, -1.97691894, 1.49874902, 3.25331736, 0.99935645, 0.01761379, -0.01258180, -0.02860561, 0.07582051, 0.96678174, -0.55616903, 87.60900116, 1209.97497559, 39.38999939, 0.00000000
1, 2.0100, 201, -0.04290915, -0.89440733, -0.45566028, -3.18339396, 19.14517021, 12.36164951, 15.14796638, -58.14234161, 37.50285721, -2.01708961, 1.47616577, 3.47772169, 0.99929494, 0.01798277, -0.01233963, -0.03056359, 0.06883826, 0.92931372, -0.54339385, 87.60900116, 1209.97497559, 39.38999939, 0.00000000
1, 2.0200, 202, -0.03160814, -0.86887723, -0.46353823, -3.50485325, 16.84202003, 12.43725967, 15.80613136, -58.18632126, 37.65511322, -2.05980492, 1.44253886, 3.68183088, 0.99923605, 0.01836784, -0.01200229, -0.03234291, 0.05700593, 0.90453631, -0.53550297, 87.60900116, 1209.97497559, 39.38999939, 0.00000000
1, 2.0300, 203, -0.01860652, -0.84794295, -0.46635374, -1.88893735, 13.33143425, 10.65341282, 15.03827477, -61.57272339, 37.71220779, -2.08498716, 1.40884948, 3.84766150, 0.99918795, 0.01859497, -0.01167451, -0.03378632, 0.04340792, 0.88417661, -0.53268182, 87.60900116, 1209.97497559, 39.38999939, 0.00000000
1, 2.0400, 204, -0.00705102, -0.83899224, -0.46250191, -0.07719462, 9.65105057, 7.79312181, 14.70919418, -61.39680099, 38.09284973, -2.09039760, 1.38380539, 3.96890998, 0.99915349, 0.01864696, -0.01143482, -0.03484019, 0.03135275, 0.87544847, -0.53653777, 87.60900116, 1209.97497559, 39.38999939, 0.00000000
1, 2.0500, 205, 0.00170724, -0.84301311, -0.46231201, 1.57624662, 6.00771856, 4.68799686, 14.70919418, -61.39680099, 38.09284973, -2.09990311, 1.38696110, 4.06509876, 0.99912208, 0.01874041, -0.01144372, -0.03568032, 0.02234503, 0.87945825, -0.53673416, 87.60900116, 1209.97497559, 39.38999939, 0.00000000
1, 2.0600, 206, 0.00380560, -0.85463005, -0.45824939, 3.11151075, 3.39127660, 1.69271421, 14.89201736, -59.68161774, 37.86446381, -2.07027006, 1.38752794, 4.10489750, 0.99911433, 0.01848619, -0.01145147, -0.03602445, 0.02038487, 0.89096159, -0.54079759, 87.60900116, 1209.97497559, 39.38999939, 0.00000000
1, 2.0700, 207, -0.00038498, -0.87484270, -0.44840956, 4.64031696, 2.37587333, -0.56575650, 14.63606358, -59.06590652, 37.35059738, -2.02464294, 1.40353811, 4.12632370, 0.99911302, 0.01809551, -0.01160202, -0.03620910, 0.02475167, 0.91048324, -0.55065799, 87.60900116, 1209.97497559, 39.38999939, 0.00000000
1, 2.0800, 208, -0.00644528, -0.89347053, -0.43636346, 5.89583206, 2.56316638, -1.98950374, 15.18453217, -59.76956940, 38.14994431, -1.96630180, 1.43307662, 4.14372158, 0.99911332, 0.01759786, -0.01187533, -0.03635919, 0.03124900, 0.92816108, -0.56272680, 87.60900116, 1209.97497559, 39.38999939, 0.00000000
1, 2.0900, 209, -0.01653859, -0.90642893, -0.43004370, 5.72768641, 3.68084192, -2.21158791, 15.58674240, -60.60517502, 38.26413727, -1.90997338, 1.46966350, 4.16996431, 0.99910927, 0.01712101, -0.01220829, -0.03658732, 0.04193865, 0.94011194, -0.56906605, 87.60900116, 1209.97497559, 39.38999939, 0.00000000
1, 2.1000, 210, -0.03030072, -0.91429555, -0.43117344, 5.18383265, 5.48635960, -1.64461565, 15.58674240, -60.60517502, 38.26413727, -1.85262239, 1.50670993, 4.23778486, 0.99909145, 0.01664009, -0.01253976, -0.03717759, 0.05637376, 0.94702971, -0.56795049, 87.60900116, 1209.97497559, 39.38999939, 0.00000000
1, 2.1100, 211, -0.04635528, -0.92214304, -0.43571267, 4.27262735, 7.57349682, -0.63114083, 15.69643497, -60.42926025, 38.26413727, -1.81234539, 1.54681480, 4.30497360, 0.99907047, 0.01630935, -0.01289294, -0.03776434, 0.07308572, 0.95400542, -0.56342208, 87.60900116, 1209.97497559, 39.38999939, 0.00000000
1, 2.1200, 212, -0.04574762, -0.92277580, -0.45140246, 1.91712892, 8.61863804, 0.45273784, 15.29422855, -61.08895111, 37.95962524, -1.79606903, 1.58192575, 4.38490343, 0.99904174, 0.01618809, -0.01319313, -0.03846401, 0.07313380, 0.95416880, -0.54772943, 87.60900116, 1209.97497559, 39.38999939, 0.00000000
1, 2.1300, 213, -0.03503124, -0.93801415, -0.42776451, 2.19058537, 7.96722507, 0.54367584, 15.07484055, -58.97794724, 38.07381439, -1.77681351, 1.61325991, 4.45962906, 0.99901521, 0.01603939, -0.01346232, -0.03911735, 0.06297247, 0.96913922, -0.57136035, 87.60900116, 1209.97497559, 39.38999939, 0.00000000
1, 2.1400, 214, -0.04199763, -0.95893419, -0.43592885, -2.41728520, 6.51746321, -1.16022182, 15.36735439, -59.10988617, 37.92155838, -1.80288541, 1.65311003, 4.51083994, 0.99898887, 0.01628631, -0.01379357, -0.03957214, 0.07058654, 0.99016476, -0.56317437, 87.60900116, 1209.97497559, 39.38999939, 0.00000000
1, 2.1500, 215, -0.09665965, -0.94585806, -0.45203173, -2.46411180, 6.31722498, -1.53343284, 15.36735439, -59.10988617, 37.92155838, -1.83358836, 1.65055084, 4.58535194, 0.99895883, 0.01656204, -0.01374988, -0.04022506, 0.12575670, 0.97764885, -0.54703915, 87.60900116, 1209.97497559, 39.38999939, 0.00000000
1, 2.1600, 216, -0.14187035, -0.90039492, -0.46773767, 0.63611060, 10.03834820, 0.11736079, 15.58674240, -60.91303253, 38.05478668, -1.83035922, 1.69511831, 4.67556953, 0.99892133, 0.01656048, -0.01412651, -0.04101711, 0.17117359, 0.93236238, -0.53132159, 87.60900116, 1209.97497559, 39.38999939, 0.00000000
1, 2.1700, 217, -0.13509397, -0.86098969, -0.48605758, 2.28157902, 17.82957077, 1.92848766, 15.95238781, -59.85753250, 38.43542480, -1.81317532, 1.75894928, 4.84434748, 0.99885356, 0.01645488, -0.01466488, -0.04249467, 0.16526780, 0.89275736, -0.51298213, 87.60900116, 1209.97497559, 39.38999939, 0.00000000
1, 2.1800, 218, -0.13865358, -0.88979501, -0.52719426, 2.18866920, 24.84917068, 2.86737394, 15.65986919, -60.78109741, 38.03575134, -1.79883826, 1.84620678, 5.07981014, 0.99875367, 0.01639357, -0.01539715, -0.04455661, 0.17040367, 0.92121291, -0.47180757, 87.60900116, 1209.97497559, 39.38999939, 0.00000000
1, 2.1900, 219, -0.08573032, -0.86127877, -0.43835250, 3.23567581, 8.48664284, 4.99871016, 15.29422855, -59.46171951, 38.60671234, -1.76948643, 1.84022880, 5.18001366, 0.99871945, 0.01614887, -0.01534234, -0.04542524, 0.11800750, 0.89242870, -0.56064093, 87.60900116, 1209.97497559, 39.38999939, 0.00000000
1, 2.2000, 220, 0.02056354, -0.84844249, -0.32593307, 7.17836523, -9.30550194, 3.55788946, 15.29422855, -59.46171951, 38.60671234, -1.68010044, 1.77953732, 5.13708878, 0.99875730, 0.01534046, -0.01485454, -0.04503174, 0.01086606, 0.87840682, -0.67312348, 87.60900116, 1209.97497559, 39.38999939, 0.00000000
1, 2.2100, 221, 0.06311967, -0.85759205, -0.33470282, 2.94965005, -21.98267365, 2.33750010, 15.44048595, -59.81355286, 38.77800369, -1.64424098, 1.65946960, 4.95365524, 0.99884933, 0.01495905, -0.01384608, -0.04341393, -0.03332377, 0.88647246, -0.66443568, 87.60900116, 1209.97497559, 39.38999939, 0.00000000
1, 2.2200, 222, 0.06860730, -0.86305392, -0.35483539, 3.01738524, -28.15773582, 0.09807269, 15.55017757, -60.73711777, 38.28316879, -1.60501909, 1.53163803, 4.70511389, 0.99896228, 0.01454150, -0.01277822, -0.04122766, -0.04105797, 0.89134783, -0.64438438, 87.60900116, 1209.97497559, 39.38999939, 0.00000000
1, 2.2300, 223, 0.05939299, -0.86929810, -0.39153370, 8.33010483, -24.83714867, -1.06127548, 15.03827477, -60.16538239, 38.51155472, -1.51314366, 1.42945421, 4.48417997, 0.99906319, 0.01368111, -0.01194684, -0.03927999, -0.03383772, 0.89639807, -0.60777205, 87.60900116, 1209.97497559, 39.38999939, 0.00000000
1, 2.2400, 224, 0.05203401, -0.88822651, -0.42636427, 14.57566643, -15.21280289, -1.08898568, 15.25766277, -61.61669922, 38.14994431, -1.36191690, 1.37121582, 4.35275173, 0.99913114, 0.01232964, -0.01150505, -0.03811248, -0.02779832, 0.91302127, -0.57303417, 87.60900116, 1209.97497559, 39.38999939, 0.00000000
1, 2.2500, 225, 0.03068346, -0.92197049, -0.43702376, 13.34381199, -1.04273272, -1.43770564, 15.25766277, -61.61669922, 38.14994431, -1.22967970, 1.39468491, 4.36442757, 0.99913830, 0.01118559, -0.01175252, -0.03820309, -0.00669663, 0.94419134, -0.56244135, 87.60900116, 1209.97497559, 39.38999939, 0.00000000
1, 2.2600, 226, -0.01134881, -0.96781898, -0.45338038, 4.77225637, 13.47917080, -1.61594355, 14.78232574, -60.69313812, 38.39736176, -1.18639493, 1.46912301, 4.48080730, 0.99909478, 0.01084544, -0.01240498, -0.03921976, 0.03642945, 0.98864853, -0.54608792, 87.60900116, 1209.97497559, 39.38999939, 0.00000000
1, 2.2700, 227, -0.05081246, -0.98354387, -0.48918480, -5.79934025, 23.73382568, -0.98128170, 15.14796638, -61.17690277, 38.43542480, -1.25209534, 1.58335972, 4.68502378, 0.99900323, 0.01148091, -0.01335805, -0.04101765, 0.07764904, 1.00482821, -0.51022816, 87.60900116, 1209.97497559, 39.38999939, 0.00000000
1, 2.2800, 228, -0.05230266, -0.98356599, -0.52861559, -10.18134022, 29.17020988, -3.94736242, 15.03827477, -60.56120300, 38.14994431, -1.36241710, 1.74866688, 4.92166042, 0.99888313, 0.01253184, -0.01473384, -0.04310959, 0.08167972, 1.00661373, -0.47068650, 87.60900116, 1209.97497559, 39.38999939, 0.00000000
1, 2.2900, 229, -0.11132199, -0.98990655, -0.53130561, -7.57491302, 20.39562988, -6.56561852, 14.78232574, -59.85753250, 38.60671234, -1.44317210, 1.89854801, 5.06964254, 0.99879605, 0.01331232, -0.01599277, -0.04442539, 0.14353578, 1.01460397, -0.46786985, 87.60900116, 1209.97497559, 39.38999939, 0.00000000
1, 2.3000, 230, -0.11013952, -0.96711147, -0.51974499, -5.26825285, 10.11508274, -2.16571784, 14.92858315, -59.37376022, 39.04444885, -1.52470410, 1.94113088, 5.16920996, 0.99874079, 0.01405349, -0.01632011, -0.04530924, 0.14404270, 0.99302912, -0.47934389, 87.60900116, 1209.97497559, 39.38999939, 0.00000000
1, 2.3100, 231, -0.05171244, -0.91215742, -0.47932923, -1.57836187, -4.12815237, 0.70521885, 14.92858315, -59.37376022, 39.04444885, -1.53946221, 1.91623688, 5.13456488, 0.99875647, 0.01416751, -0.01610159, -0.04500663, 0.08540719, 0.93898070, -0.51974291, 87.60900116, 1209.97497559, 39.38999939, 0.00000000
1, 2.3200, 232, -0.02953885, -0.88650262, -0.43764263, 2.97904396, -17.00799370, 3.51427317, 15.55017757, -59.50569916, 38.94929123, -1.50534761, 1.80844688, 5.00051785, 0.99882841, 0.01381048, -0.01519165, -0.04382180, 0.06194317, 0.91303253, -0.56147987, 87.60900116, 1209.97497559, 39.38999939, 0.00000000
1, 2.3300, 233, 0.00058240, -0.85658175, -0.39223874, 6.57538223, -21.60081100, 6.99268627, 15.18453217, -61.39680099, 39.21573639, -1.43402517, 1.64914525, 4.84324884, 0.99891776, 0.01310944, -0.01384834, -0.04242497, 0.02924744, 0.88210738, -0.60698986, 87.60900116, 1209.97497559, 39.38999939, 0.00000000
1, 2.3400, 234, 0.04192672, -0.84220886, -0.38946879, 8.35758972, -17.01268578, 7.45283699, 14.74575996, -60.60517502, 38.62574387, -1.34602559, 1.50649881, 4.72990799, 0.99898660, 0.01227743, -0.01264954, -0.04141237, -0.01476868, 0.86627424, -0.60987234, 87.60900116, 1209.97497559, 39.38999939, 0.00000000
1, 2.3500, 235, 0.07037342, -0.84816605, -0.39723134, 6.76409960, -11.10657978, 2.25565362, 15.25766277, -59.63763428, 38.01671982, -1.27756393, 1.47671592, 4.66264153, 0.99902147, 0.01166262, -0.01242149, -0.04081562, -0.04478506, 0.87082785, -0.60218430, 87.60900116, 1209.97497559, 39.38999939, 0.00000000
1, 2.3600, 236, 0.05096366, -0.86106431, -0.42728892, 1.33950686, -3.27148676, -2.04549336, 15.25766277, -59.63763428, 38.01671982, -1.26275408, 1.48047876, 4.62514591, 0.99903578, 0.01153076, -0.01246334, -0.04048746, -0.02523451, 0.88309729, -0.57213724, 87.60900116, 1209.97497559, 39.38999939, 0.00000000
1, 2.3700, 237, 0.03283599, -0.87002671, -0.46619633, -5.27196741, 2.20975685, -4.61708593, 15.25766277, -60.64915848, 38.58768082, -1.31549025, 1.53158522, 4.62101269, 0.99902576, 0.01200799, -0.01289070, -0.04046204, -0.00649230, 0.89254272, -0.53320295, 87.60900116, 1209.97497559, 39.38999939, 0.00000000
1, 2.3800, 238, 0.00844732, -0.88157094, -0.49192944, -9.04975414, 4.37140942, -6.40580320, 15.18453217, -61.30884552, 38.56864929, -1.40645182, 1.60828614, 4.62575340, 0.99900472, 0.01282843, -0.01352673, -0.04052143, 0.01909441, 0.90549970, -0.50740457, 87.60900116, 1209.97497559, 39.38999939, 0.00000000
1, 2.3900, 239, -0.02096001, -0.89814937, -0.50046158, -7.92614126, 4.04739189, -7.04887247, 15.40392017, -61.00099564, 38.05478668, -1.48598421, 1.68931162, 4.62532520, 0.99898523, 0.01355013, -0.01420503, -0.04053583, 0.04991851, 0.92359948, -0.49879485, 87.60900116, 1209.97497559, 39.38999939, 0.00000000
1, 2.4000, 240, -0.04547022, -0.90745032, -0.49787298, -3.45369053, 1.13028598, -7.01841640, 14.96514320, -59.94548798, 37.97865677, -1.55099440, 1.73774529, 4.62320805, 0.99897164, 0.01413357, -0.01460453, -0.04053089, 0.07563233, 0.93395126, -0.50132060, 87.60900116, 1209.97497559, 39.38999939, 0.00000000
1, 2.4100, 241, -0.06187564, -0.91286695, -0.47658387, 2.25128341, -3.03102469, -5.85772038, 14.96514320, -59.94548798, 37.97865677, -1.52682471, 1.77646887, 4.57128048, 0.99898756, 0.01392965, -0.01495698, -0.04007941, 0.09266770, 0.93973696, -0.52258062, 87.60900116, 1209.97497559, 39.38999939, 0.00000000
1, 2.4200, 242, -0.06119166, -0.91111213, -0.44745687, 6.84817982, -5.74407816, -4.59287310, 14.78232574, -61.88057327, 38.18800735, -1.45608234, 1.79182684, 4.50375414, 0.99901718, 0.01330933, -0.01512346, -0.03948309, 0.09238387, 0.93701851, -0.55172062, 87.60900116, 1209.97497559, 39.38999939, 0.00000000
1, 2.4300, 243, -0.05507339, -0.91326821, -0.42051387, 9.15269089, -6.55102158, -3.45672202, 14.78232574, -59.15386200, 37.92155838, -1.36220908, 1.79355156, 4.43557739, 0.99905086, 0.01248250, -0.01517826, -0.03887647, 0.08637868, 0.93766928, -0.57869798, 87.60900116, 1209.97497559, 39.38999939, 0.00000000
1, 2.4400, 244, -0.04709210, -0.91403514, -0.39686358, 9.57694817, -5.36228418, -2.48380017, 15.84269142, -59.54967499, 38.16897583, -1.26456594, 1.79198635, 4.38263178, 0.99907917, 0.01162366, -0.01520311, -0.03840178, 0.07837089, 0.93671298, -0.60238975, 87.60900116, 1209.97497559, 39.38999939, 0.00000000
1, 2.4500, 245, -0.03823335, -0.91726261, -0.38085189, 7.24380922, -2.26966310, -1.72608805, 15.62330818, -61.13293076, 38.56864929, -1.15933573, 1.78970861, 4.38510084, 0.99908882, 0.01070576, -0.01521827, -0.03840914, 0.06952924, 0.93835163, -0.61843562, 87.60900116, 1209.97497559, 39.38999939, 0.00000000
1, 2.4600, 246, -0.02851122, -0.91572690, -0.38421154, 3.30580640, 1.63205087, -0.84098572, 15.62330818, -61.13293076, 38.56864929, -1.12665212, 1.80452251, 4.39806938, 0.99908543, 0.01042746, -0.01535721, -0.03851905, 0.05988941, 0.93556577, -0.61509919, 87.60900116, 1209.97497559, 39.38999939, 0.00000000
1, 2.4700, 247, -0.02306698, -0.91308594, -0.39607129, 0.91960788, 3.42852211, -0.60255426, 15.98895359, -60.86905289, 38.58768082, -1.11836696, 1.82512808, 4.42666674, 0.99907362, 0.01036598, -0.01553706, -0.03876891, 0.05478976, 0.93262923, -0.60323441, 87.60900116, 1209.97497559, 39.38999939, 0.00000000
1, 2.4800, 248, -0.02181317, -0.90528011, -0.40877053, -0.35543090, 3.03486848, -0.22020611, 15.14796638, -60.47323990, 38.32123184, -1.12274897, 1.84054983, 4.45263052, 0.99906224, 0.01041291, -0.01566768, -0.03899711, 0.05383520, 0.92482883, -0.59052545, 87.60900116, 1209.97497559, 39.38999939, 0.00000000
1, 2.4900, 249, -0.02012302, -0.89822018, -0.42408571, -0.66791868, 1.79619038, -0.17497841, 15.51361179, -59.94548798, 38.11188126, -1.12991762, 1.85006940, 4.46750832, 0.99905521, 0.01048067, -0.01574688, -0.03912857, 0.05234725, 0.91787958, -0.57520163, 87.60900116, 1209.97497559, 39.38999939, 0.00000000
1, 2.5000, 250, -0.01792715, -0.89918226, -0.43668368, -0.36881432, 0.75527418, -0.39113903, 15.36735439, -59.63763428, 38.13091278, -1.13090229, 1.92528009, 4.49095964, 0.99903601, 0.01051808, -0.01640011, -0.03933921, 0.05058640, 0.91892737, -0.56258768, 87.60900116, 1209.97497559, 39.38999939, 0.00000000
1, 2.5100, 251, -0.01471816, -0.89885753, -0.45070747, 0.57770813, 0.05105652, -0.95376807, 15.36735439, -59.63763428, 38.13091278, -1.12502813, 1.93406439, 4.48755407, 0.99903637, 0.01046937, -0.01647902, -0.03930938, 0.04840685, 0.91853070, -0.54853129, 87.60900116, 1209.97497559, 39.38999939, 0.00000000
1, 2.5200, 252, -0.01145536, -0.90494984, -0.45188469, 1.72778106, 0.40970653, -1.35404801, 15.18453217, -59.37376022, 38.16897583, -1.10768986, 1.94804239, 4.48632193, 0.99903619, 0.01032278, -0.01660694, -0.03929724, 0.04534638, 0.92439783, -0.54735160, 87.60900116, 1209.97497559, 39.38999939, 0.00000000
1, 2.5300, 253, -0.01030103, -0.91021943, -0.44320241, 2.18731046, 1.49771416, -1.56109810, 15.58674240, -61.00099564, 38.39736176, -1.08603370, 1.96869516, 4.49419880, 0.99903238, 0.01014216, -0.01679373, -0.03936436, 0.04450919, 0.92930412, -0.55603009, 87.60900116, 1209.97497559, 39.38999939, 0.00000000
1, 2.5400, 254, -0.00937614, -0.91881675, -0.43048504, 2.15440416, 2.71083593, -1.25424016, 16.06208038, -61.13293076, 38.35929489, -1.06505024, 1.99195731, 4.51428747, 0.99902374, 0.00997012, -0.01700200, -0.03953817, 0.04397618, 0.93753433, -0.56874096, 87.60900116, 1209.97497559, 39.38999939, 0.00000000
1, 2.5500, 255, -0.01218398, -0.92543918, -0.42284033, 2.42970228, 3.58357978, -0.97305959, 15.95238781, -61.04496765, 38.20703888, -1.02675831, 2.02372456, 4.56674385, 0.99900383, 0.00965508, -0.01728775, -0.03999209, 0.04725526, 0.94370276, -0.57637763, 87.60900116, 1209.97497559, 39.38999939, 0.00000000
1, 2.5600, 256, -0.01730006, -0.92653370, -0.41604266, 3.01266003, 3.66453004, -0.39305726, 15.95238781, -61.04496765, 38.20703888, -0.99751234, 2.04346514, 4.59973955, 0.99899161, 0.00941198, -0.01746734, -0.04027670, 0.05283987, 0.94411886, -0.58317083, 87.60900116, 1209.97497559, 39.38999939, 0.00000000
1, 2.5700, 257, -0.02019987, -0.92805678, -0.40703931, 2.58305025, 2.69114208, 0.16787718, 15.11140537, -59.28580475, 38.24510574, -0.97236902, 2.05385900, 4.62622643, 0.99898267, 0.00920047, -0.01756467, -0.04050448, 0.05598290, 0.94517112, -0.59217370, 87.60900116, 1209.97497559, 39.38999939, 0.00000000
1, 2.5800, 258, -0.02275582, -0.92526829, -0.40643188, 1.29543030, 1.57549846, 0.62297636, 15.03827477, -59.98946762, 38.14994431, -0.95987421, 2.05522132, 4.64391041, 0.99897718, 0.00909473, -0.01757956, -0.04065683, 0.05861937, 0.94206601, -0.59278369, 87.60900116, 1209.97497559, 39.38999939, 0.00000000
1, 2.5900, 259, -0.01942841, -0.91836292, -0.41019210, -0.15618180, 0.90627992, 0.98249316, 15.44048595, -59.81355286, 38.51155472, -0.96176183, 2.05039668, 4.65626383, 0.99897337, 0.00911138, -0.01753584, -0.04076448, 0.05524257, 0.93510687, -0.58902609, 87.60900116, 1209.97497559, 39.38999939, 0.00000000
1, 2.6000, 260, -0.01528730, -0.91313303, -0.41918606, -1.19868660, 0.73916042, 1.26342237, 15.36735439, -62.23241043, 38.43542480, -0.95599097, 2.05401850, 4.69245768, 0.99896038, 0.00906790, -0.01756661, -0.04107937, 0.05103502, 0.92994851, -0.58003330, 87.60900116, 1209.97497559, 39.38999939, 0.00000000
1, 2.6100, 261, -0.01045435, -0.90972883, -0.42972398, -1.91677964, 0.66320258, 1.36949265, 15.69643497, -61.22089005, 38.47348785, -0.97547919, 2.04462981, 4.70322084, 0.99895638, 0.00923609, -0.01747691, -0.04117554, 0.04619053, 0.92660815, -0.56949472, 87.60900116, 1209.97497559, 39.38999939, 0.00000000
1, 2.6200, 262, 0.00519579, -0.90251195, -0.44196251, -1.83660901, 0.27498260, 1.00951934, 15.69643497, -61.22089005, 38.47348785, -0.99403942, 2.03675890, 4.70897245, 0.99895406, 0.00939595, -0.01740115, -0.04122796, 0.03039815, 0.91973704, -0.55725539, 87.60900116, 1209.97497559, 39.38999939, 0.00000000
1, 2.6300, 263, 0.00395725, -0.89942461, -0.44761530, -0.74887574, -0.10134732, 0.40061668, 15.51361179, -60.07742691, 38.45445633, -1.00155020, 2.03271079, 4.70935535, 0.99895394, 0.00946004, -0.01736312, -0.04123216, 0.03152810, 0.91686213, -0.55160272, 87.60900116, 1209.97497559, 39.38999939, 0.00000000
1, 2.6400, 264, 0.00269425, -0.90767527, -0.44756520, 0.28789803, -0.19735081, -0.58895922, 15.80613136, -59.32978439, 37.97865677, -0.99855489, 2.03712630, 4.70517445, 0.99895501, 0.00943487, -0.01740304, -0.04119557, 0.03280979, 0.92511028, -0.55165225, 87.60900116, 1209.97497559, 39.38999939, 0.00000000
1, 2.6500, 265, -0.01908698, -0.91279852, -0.44245535, 0.38505721, -0.23979573, -1.09991980, 16.42772484, -59.94548798, 38.51155472, -0.98185837, 2.04841900, 4.72277784, 0.99894822, 0.00929604, -0.01750606, -0.04134726, 0.05473797, 0.93010759, -0.55675906, 87.60900116, 1209.97497559, 39.38999939, 0.00000000
1, 2.6600, 266, -0.02386264, -0.90350628, -0.43671796, 0.17248628, -0.68917537, -1.00324726, 15.87925720, -59.85753250, 38.30220032, -0.97985327, 2.05438447, 4.71229172, 0.99895120, 0.00927909, -0.01755963, -0.04125595, 0.05968109, 0.92060578, -0.56249410, 87.60900116, 1209.97497559, 39.38999939, 0.00000000
1, 2.6700, 267, -0.02690960, -0.89635694, -0.42285419, 0.00313846, -1.89242268, -0.95771259, 15.87925720, -59.85753250, 38.30220032, -0.97925150, 2.05463672, 4.69111395, 0.99895883, 0.00927069, -0.01756377, -0.04107125, 0.06276314, 0.91344595, -0.57635677, 87.60900116, 1209.97497559, 39.38999939, 0.00000000
1, 2.6800, 268, -0.03338639, -0.90242690, -0.42878366, 1.00144994, -0.97258162, -1.11721182, 15.29422855, -59.68161774, 38.37833023, -0.96887559, 2.06038427, 4.67809725, 0.99896348, 0.00918028, -0.01761863, -0.04095658, 0.06928509, 0.91940635, -0.57042748, 87.60900116, 1209.97497559, 39.38999939, 0.00000000
1, 2.6900, 269, -0.04326186, -0.91393387, -0.44712743, 1.61106908, 0.95287973, -1.04344010, 14.92858315, -61.22089005, 38.35929489, -0.95288277, 2.07396889, 4.68306255, 0.99896073, 0.00904645, -0.01774238, -0.04099831, 0.07935876, 0.93065584, -0.55208099, 87.60900116, 1209.97497559, 39.38999939, 0.00000000
1, 2.7000, 270, -0.04631770, -0.92246342, -0.45045263, 0.78044009, 1.33834302, -0.87458998, 15.18453217, -59.94548798, 38.14994431, -0.94124305, 2.04478478, 4.72127676, 0.99895257, 0.00894044, -0.01748915, -0.04132773, 0.08247726, 0.93896443, -0.54875708, 87.60900116, 1209.97497559, 39.38999939, 0.00000000
1, 2.7100, 271, -0.03614765, -0.92322320, -0.43308592, -0.70059723, -0.71054244, -0.10453124, 15.73299980, -59.24182510, 38.13091278, -0.94804466, 2.04258895, 4.71400642, 0.99895507, 0.00899784, -0.01746812, -0.04126525, 0.07183620, 0.93970573, -0.56614113, 87.60900116, 1209.97497559, 39.38999939, 0.00000000
1, 2.7200, 272, -0.02241824, -0.92335397, -0.40964517, -0.93433404, -4.03818417, 0.75787473, 15.73299980, -59.24182510, 38.13091278, -0.95645273, 2.01798892, 4.68054390, 0.99897027, 0.00905731, -0.01725329, -0.04097318, 0.05782091, 0.93998152, -0.58958960, 87.60900116, 1209.97497559, 39.38999939, 0.00000000
1, 2.7300, 273, -0.01053938, -0.91929513, -0.39471748, -0.89613861, -7.20418310, 1.30643725, 15.80613136, -58.84601212, 38.60671234, -0.96371025, 1.97450042, 4.62115383, 0.99899757, 0.00909639, -0.01687629, -0.04045361, 0.04529769, 0.93605512, -0.60453773, 87.60900116, 1209.97497559, 39.38999939, 0.00000000
1, 2.7400, 274, 0.00155228, -0.90690142, -0.40206558, -2.17167187, -8.94702816, 1.29127753, 15.91582298, -60.78109741, 38.79703140, -0.98320460, 1.92344189, 4.54528284, 0.99903023, 0.00923757, -0.01643040, -0.03979151, 0.03234801, 0.92390341, -0.59721494, 87.60900116, 1209.97497559, 39.38999939, 0.00000000
1, 2.7500, 275, 0.00665442, -0.89370358, -0.41874558, -3.14855814, -8.77034378, 0.50695735, 15.40392017, -59.90151215, 38.24510574, -1.01581848, 1.89410043, 4.48732758, 0.99905193, 0.00950361, -0.01616807, -0.03928882, 0.02647736, 0.91117817, -0.58055258, 87.60900116, 1209.97497559, 39.38999939, 0.00000000
1, 2.7600, 276, 0.00827926, -0.88373697, -0.44268653, -3.06479764, -5.91593552, -0.87470973, 15.40392017, -60.47323990, 38.09284973, -1.04472947, 1.87577999, 4.42853785, 0.99907225, 0.00974123, -0.01600343, -0.03877899, 0.02453503, 0.90178192, -0.55661201, 87.60900116, 1209.97497559, 39.38999939, 0.00000000
1, 2.7700, 277, 0.01000857, -0.88650429, -0.45530254, -1.64297438, -2.33084655, -2.22753096, 15.40392017, -60.47323990, 38.09284973, -1.06023300, 1.88543618, 4.39678192, 0.99908012, 0.00987518, -0.01608511, -0.03850501, 0.02279474, 0.90492040, -0.54398966, 87.60900116, 1209.97497559, 39.38999939, 0.00000000
1, 2.7800, 278, 0.00695310, -0.89455748, -0.45591670, 0.74329984, 0.82385075, -3.02984643, 15.73299980, -59.28580475, 38.11188126, -1.05265427, 1.91626441, 4.39125013, 0.99907809, 0.00981859, -0.01635692, -0.03845801, 0.02626091, 0.91300517, -0.54336131, 87.60900116, 1209.97497559, 39.38999939, 0.00000000
1, 2.7900, 279, -0.00088385, -0.90386325, -0.44511548, 3.26292324, 2.39374113, -3.39127398, 15.40392017, -60.86905289, 37.99768829, -1.02025270, 1.95729816, 4.39978552, 0.99907184, 0.00955100, -0.01672484, -0.03853076, 0.03476772, 0.92189634, -0.55414760, 87.60900116, 1209.97497559, 39.38999939, 0.00000000
1, 2.8000, 280, -0.01233639, -0.91148227, -0.43443391, 4.01827431, 2.02085614, -3.31353331, 15.65986919, -60.16538239, 37.95962524, -0.98011124, 1.99881589, 4.42816067, 0.99905920, 0.00921911, -0.01709803, -0.03877514, 0.04693871, 0.92884105, -0.56481647, 87.60900116, 1209.97497559, 39.38999939, 0.00000000
1, 2.8100, 281, -0.02252330, -0.91418719, -0.42884165, 3.24230242, -0.03310462, -2.95003986, 15.14796638, -59.68161774, 38.03575134, -0.94733709, 2.02519083, 4.41691303, 0.99906147, 0.00894053, -0.01733995, -0.03867393, 0.05771041, 0.93090236, -0.57039928, 87.60900116, 1209.97497559, 39.38999939, 0.00000000
1, 2.8200, 282, -0.03071819, -0.91558075, -0.42337203, 1.34487450, -3.16111970, -2.50022554, 15.14796638, -59.68161774, 38.03575134, -0.93280447, 2.03373313, 4.37842321, 0.99907416, 0.00881084, -0.01742229, -0.03833672, 0.06617978, 0.93192065, -0.57586545, 87.60900116, 1209.97497559, 39.38999939, 0.00000000
1, 2.8300, 283, -0.03143334, -0.91496032, -0.41685250, -0.15763883, -6.49359274, -1.95044839, 15.14796638, -59.10988617, 38.07381439, -0.93251610, 2.02266121, 4.31152105, 0.99909812, 0.00879453, -0.01733099, -0.03775265, 0.06682478, 0.93120915, -0.58238888, 87.60900116, 1209.97497559, 39.38999939, 0.00000000
1, 2.8400, 284, -0.02742030, -0.91589195, -0.41392311, -0.77489436, -8.54943943, -1.39411867, 15.65986919, -60.29732513, 38.70186996, -0.93792552, 1.99752927, 4.22824860, 0.99912888, 0.00882104, -0.01711650, -0.03702578, 0.06245083, 0.93222034, -0.58532971, 87.60900116, 1209.97497559, 39.38999939, 0.00000000
1, 2.8500, 285, -0.02032485, -0.91932100, -0.41217795, -0.28187445, -8.33082390, -0.88126022, 16.20833778, -59.19784164, 38.20703888, -0.92389619, 1.97135317, 4.17319489, 0.99915159, 0.00868221, -0.01689697, -0.03654196, 0.05488281, 0.93563247, -0.58709157, 87.60900116, 1209.97497559, 39.38999939, 0.00000000
1, 2.8600, 286, -0.01126901, -0.92257982, -0.41564077, 0.42984262, -6.39367008, -0.42083237, 15.65986919, -59.81355286, 37.92155838, -0.91786784, 1.94699752, 4.11428404, 0.99917442, 0.00861336, -0.01669096, -0.03602584, 0.04538637, 0.93863726, -0.58364809, 87.60900116, 1209.97497559, 39.38999939, 0.00000000
1, 2.8700, 287, -0.00500554, -0.92067420, -0.42057395, 0.74302965, -3.66685772, -0.17110141, 15.33078861, -59.72559738, 37.99768829, -0.90944684, 1.93240845, 4.08111906, 0.99918753, 0.00853058, -0.01656887, -0.03573450, 0.03880461, 0.93659061, -0.57872802, 87.60900116, 1209.97497559, 39.38999939, 0.00000000
1, 2.8800, 288, 0.00115120, -0.91747785, -0.42626825, 0.51724082, -0.61607158, -0.05353659, 15.33078861, -59.72559738, 37.99768829, -0.90410393, 1.93018591, 4.07569027, 0.99919003, 0.00848252, -0.01655156, -0.03568625, 0.03253084, 0.93327755, -0.57303953, 87.60900116, 1209.97497559, 39.38999939, 0.00000000
1, 2.8900, 289, 0.00031862, -0.90947157, -0.43418896, -0.43078309, 1.49070215, -0.27001807, 15.76956558, -60.20936584, 37.88349915, -0.90877652, 1.93916285, 4.08759832, 0.99918461, 0.00852777, -0.01662749, -0.03579133, 0.03344686, 0.92527843, -0.56511581, 87.60900116, 1209.97497559, 39.38999939, 0.00000000
1, 2.9000, 290, -0.00764502, -0.90127826, -0.43729404, -1.07917500, 2.17575979, -0.49972790, 15.47705078, -60.03344727, 38.34026337, -0.92861259, 1.97596610, 4.12610674, 0.99916542, 0.00871783, -0.01693927, -0.03613239, 0.04173253, 0.91728324, -0.56199658, 87.60900116, 1209.97497559, 39.38999939, 0.00000000
1, 2.9100, 291, -0.01736997, -0.89725429, -0.43663296, -1.48051679, 1.44011295, -0.83037549, 15.14796638, -61.74863815, 38.72090530, -0.94369030, 1.98974919, 4.13443470, 0.99915957, 0.00885485, -0.01705406, -0.03620815, 0.05200285, 0.91361022, -0.56263328, 87.60900116, 1209.97497559, 39.38999939, 0.00000000
1, 2.9200, 292, -0.02385847, -0.89836788, -0.43581954, -1.53441834, -0.22111669, -1.05849719, 15.84269142, -60.38528061, 38.32123184, -0.95885986, 1.99826217, 4.12682629, 0.99915940, 0.00898865, -0.01712409, -0.03614464, 0.05867917, 0.91498744, -0.56343579, 87.60900116, 1209.97497559, 39.38999939, 0.00000000
1, 2.9300, 293, -0.02754894, -0.89866227, -0.43801576, -1.54636765, -2.30830526, -1.45390737, 15.84269142, -60.38528061, 38.32123184, -0.97357100, 2.00112057, 4.09875727, 0.99916667, 0.00911361, -0.01714661, -0.03590229, 0.06245991, 0.91555065, -0.56123197, 87.60900116, 1209.97497559, 39.38999939, 0.00000000
1, 2.9400, 294, -0.02795304, -0.89851481, -0.43808064, -1.11488307, -4.15498972, -1.65225673, 15.47705078, -60.51721954, 38.03575134, -0.98347223, 1.99761605, 4.05353642, 0.99918056, 0.00919210, -0.01711657, -0.03550922, 0.06283926, 0.91561222, -0.56116438, 87.60900116, 1209.97497559, 39.38999939, 0.00000000
1, 2.9500, 295, -0.02603749, -0.89858133, -0.43393722, -0.11677622, -5.20814514, -1.83565688, 15.62330818, -61.35282516, 38.09284973, -0.98664755, 1.98999524, 4.02191067, 0.99919122, 0.00921274, -0.01705169, -0.03523340, 0.06082153, 0.91575927, -0.56531000, 87.60900116, 1209.97497559, 39.38999939, 0.00000000
1, 2.9600, 296, -0.02440677, -0.90149826, -0.43104813, 1.08101761, -5.15098619, -1.60960209, 15.33078861, -59.81355286, 37.73123932, -0.97430485, 1.98173928, 3.96933627, 0.99920946, 0.00909481, -0.01698766, -0.03477257, 0.05904501, 0.91858780, -0.56820571, 87.60900116, 1209.97497559, 39.38999939, 0.00000000
1, 2.9700, 297, -0.02055051, -0.90564722, -0.42918962, 1.94394660, -3.98372149, -1.21855783, 15.47705078, -60.29732513, 37.69317627, -0.95368779, 1.97513878, 3.92948294, 0.99922425, 0.00890716, -0.01693946, -0.03442156, 0.05505351, 0.92242229, -0.57007414, 87.60900116, 1209.97497559, 39.38999939, 0.00000000
1, 2.9800, 298, -0.02287743, -0.91371608, -0.42810369, 2.56816077, -2.39147234, -0.69480014, 15.47705078, -60.29732513, 37.69317627, -0.92729175, 1.97087145, 3.90661335, 0.99923372, 0.00867234, -0.01691191, -0.03421795, 0.05729481, 0.93006408, -0.57117021, 87.60900116, 1209.97497559, 39.38999939, 0.00000000
1, 2.9900, 299, -0.02437336, -0.92023331, -0.42207462, 2.48869014, -0.51511878, -0.03986825, 15.80613136, -59.10988617, 37.90252686, -0.90226424, 1.96898389, 3.90339351, 0.99923676, 0.00845307, -0.01690316, -0.03418606, 0.05873660, 0.93612963, -0.57720840, 87.60900116, 1209.97497559, 39.38999939, 0.00000000
1, 3.0000, 300, -0.02818727, -0.92196786, -0.41800573, 1.96371007, 0.94490510, 0.67798740, 15.11140537, -61.66067886, 38.13091278, -0.84841913, 1.96113539, 3.94510841, 0.99922943, 0.00798735, -0.01684788, -0.03454140, 0.06250187, 0.93733674, -0.58128709, 87.60900116, 1209.97497559, 39.38999939, 0.00000000
1, 3.0100, 301, -0.02665347, -0.92030185, -0.41585401, 1.59281397, 1.77713263, 1.03060651, 15.18453217, -60.82507324, 38.09284973, -0.83307350, 1.95968783, 3.96657276, 0.99922413, 0.00785626, -0.01683841, -0.03472622, 0.06086350, 0.93492961, -0.58345366, 87.60900116, 1209.97497559, 39.38999939, 0.00000000
1, 3.0200, 302, -0.02402796, -0.91895366, -0.41775405, 0.71017444, 2.18161917, 1.05938935, 16.02551460, -59.81355286, 38.07381439, -0.82668048, 1.95973814, 3.99123788, 0.99921715, 0.00780415, -0.01683911, -0.03494036, 0.05822220, 0.93340319, -0.58155668, 87.60900116, 1209.97497559, 39.38999939, 0.00000000
1, 3.0300, 303, -0.02247480, -0.91719329, -0.42169359, -0.41725683, 1.89802504, 1.07445550, 16.02551460, -59.81355286, 38.07381439, -0.83147329, 1.95840764, 4.01271772, 0.99921042, 0.00784869, -0.01682457, -0.03512829, 0.05666013, 0.93165040, -0.57761735, 87.60900116, 1209.97497559, 39.38999939, 0.00000000
1, 3.0400, 304, -0.02204612, -0.91553682, -0.42786151, -1.18302298, 1.49946761, 0.94537133, 15.62330818, -59.28580475, 38.26413727, -0.84381080, 1.95647740, 4.02956390, 0.99920458, 0.00795816, -0.01680279, -0.03527688, 0.05620276, 0.93017113, -0.57144785, 87.60900116, 1209.97497559, 39.38999939, 0.00000000
1, 3.0500, 305, -0.01774983, -0.91309708, -0.43173546, -1.55238187, 0.75951707, 0.89578837, 14.89201736, -61.57272339, 38.32123184, -0.85366714, 1.97177792, 4.06321287, 0.99919128, 0.00805375, -0.01693081, -0.03557264, 0.05193032, 0.92795724, -0.56756973, 87.60900116, 1209.97497559, 39.38999939, 0.00000000
1, 3.0600, 306, -0.01446038, -0.91139871, -0.43593341, -1.34864151, 0.07524024, 0.86320055, 15.18453217, -60.86905289, 38.39736176, -0.86726516, 1.96434236, 4.06683445, 0.99919033, 0.00817056, -0.01686149, -0.03560578, 0.04879094, 0.92644954, -0.56336379, 87.60900116, 1209.97497559, 39.38999939, 0.00000000
1, 3.0700, 307, -0.01372520, -0.90609270, -0.44124103, -0.51384753, -0.68672442, 0.63368708, 15.07484055, -62.23241043, 37.95962524, -0.87229538, 1.95563221, 4.06312323, 0.99919248, 0.00821119, -0.01678425, -0.03557363, 0.04791621, 0.92128676, -0.55805874, 87.60900116, 1209.97497559, 39.38999939, 0.00000000
1, 3.0800, 308, -0.01271566, -0.90018922, -0.44352609, 0.00365839, -1.75681913, 0.20530502, 15.07484055, -62.23241043, 37.95962524, -0.87182087, 1.94606948, 4.04827261, 0.99919850, 0.00820194, -0.01670207, -0.03544348, 0.04673759, 0.91540694, -0.55577910, 87.60900116, 1209.97497559, 39.38999939, 0.00000000
1, 3.0900, 309, -0.01325114, -0.89788735, -0.44305390, 0.47749326, -2.21227455, -0.05181656, 15.40392017, -60.25334549, 38.49252319, -0.86644256, 1.93681860, 4.02850056, 0.99920630, 0.00814934, -0.01662448, -0.03526973, 0.04710627, 0.91304451, -0.55625784, 87.60900116, 1209.97497559, 39.38999939, 0.00000000
1, 3.1000, 310, -0.01380104, -0.89551848, -0.44101220, 0.85436356, -2.00090790, -0.20673078, 14.70919418, -60.47323990, 37.97865677, -0.87062573, 1.95088840, 4.03250217, 0.99920273, 0.00819070, -0.01674559, -0.03530609, 0.04761209, 0.91059613, -0.55830228, 87.60900116, 1209.97497559, 39.38999939, 0.00000000
1, 3.1100, 311, -0.01471199, -0.89775926, -0.43891519, 0.86807126, -1.29492474, -0.35013509, 15.00170898, -59.85753250, 37.94059372, -0.86155158, 1.94835842, 4.01989222, 0.99920762, 0.00810896, -0.01672722, -0.03519466, 0.04871840, 0.91283679, -0.56039262, 87.60900116, 1209.97497559, 39.38999939, 0.00000000
1, 3.1200, 312, -0.01794273, -0.90179014, -0.43365645, 0.51929450, -0.24955913, -0.43256021, 15.07484055, -60.07742691, 37.88349915, -0.85623759, 1.95115626, 4.01607943, 0.99920869, 0.00806292, -0.01675351, -0.03516081, 0.05196476, 0.91674757, -0.56565267, 87.60900116, 1209.97497559, 39.38999939, 0.00000000
1, 3.1300, 313, -0.01853128, -0.91075963, -0.42788118, 0.34837866, 0.79549384, -0.41006628, 15.07484055, -60.07742691, 37.88349915, -0.85290617, 1.95833504, 4.02164412, 0.99920613, 0.00803687, -0.01681674, -0.03520926, 0.05264974, 0.92566061, -0.57142556, 87.60900116, 1209.97497559, 39.38999939, 0.00000000
1, 3.1400, 314, -0.01930669, -0.92030394, -0.42454278, 0.59459275, 1.38123083, -0.43366191, 15.40392017, -61.88057327, 38.14994431, -0.84727156, 1.96830213, 4.03250551, 0.99920171, 0.00799238, -0.01690463, -0.03530374, 0.05359077, 0.93512756, -0.57475936, 87.60900116, 1209.97497559, 39.38999939, 0.00000000
1, 3.1500, 315, -0.01746492, -0.92782032, -0.41974589, 0.83362496, 0.67922294, -0.41399553, 15.65986919, -61.61669922, 38.41639328, -0.75002944, 2.00894356, 4.06782198, 0.99919093, 0.00716222, -0.01728676, -0.03559943, 0.05203765, 0.94211978, -0.57955372, 87.60900116, 1209.97497559, 39.38999939, 0.00000000
1, 3.1600, 316, -0.01341727, -0.93141729, -0.41594297, 0.03405339, -0.37600604, -0.27552903, 15.47705078, -60.69313812, 38.22607422, -0.74956077, 2.00977874, 4.06326675, 0.99919230, 0.00715771, -0.01729447, -0.03555968, 0.04849365, 0.94447422, -0.58335638, 87.60900116, 1209.97497559, 39.38999939, 0.00000000
1, 3.1700, 317, -0.01173129, -0.93283933, -0.41504246, -1.62161553, -1.91797900, -0.16225454, 15.07484055, -59.94548798, 38.13091278, -0.76528335, 2.00283289, 4.04431677, 0.99919820, 0.00728981, -0.01723023, -0.03539645, 0.04673536, 0.94606411, -0.58425725, 87.60900116, 1209.97497559, 39.38999939, 0.00000000
1, 3.1800, 318, -0.01538637, -0.92918223, -0.41053319, -2.91568947, -3.54032302, -0.20998095, 15.18453217, -59.81355286, 37.88349915, -0.79351079, 1.98919725, 4.00976849, 0.99920917, 0.00752660, -0.01710488, -0.03509870, 0.05019553, 0.94282520, -0.58876765, 87.60900116, 1209.97497559, 39.38999939, 0.00000000
1, 3.1900, 319, -0.01880310, -0.92557508, -0.40848315, -3.57401228, -4.40631914, -0.03281169, 15.18453217, -59.81355286, 37.88349915, -0.82810229, 1.97014844, 3.96782517, 0.99922252, 0.00781624, -0.01693105, -0.03473702, 0.05331484, 0.93979335, -0.59081995, 87.60900116, 1209.97497559, 39.38999939, 0.00000000
1, 3.2000, 320, -0.02165507, -0.91760880, -0.41178021, -3.39176035, -4.83487797, 0.02793401, 15.11140537, -61.61669922, 38.35929489, -0.84946030, 1.94867182, 3.94719124, 0.99923050, 0.00799300, -0.01673874, -0.03455897, 0.05579992, 0.93237317, -0.58752763, 87.60900116, 1209.97497559, 39.38999939, 0.00000000
1, 3.2100, 321, -0.02369754, -0.90619546, -0.41839743, -2.86857104, -5.01775932, -0.08298159, 15.18453217, -61.35282516, 38.26413727, -0.87680256, 1.92735600, 3.90000725, 0.99924600, 0.00821823, -0.01654800, -0.03415021, 0.05746721, 0.92132026, -0.58091772, 87.60900116, 1209.97497559, 39.38999939, 0.00000000
1, 3.2200, 322, -0.02310192, -0.89759415, -0.42795980, -1.93464661, -4.66194391, -0.41234657, 15.00170898, -60.64915848, 37.59801865, -0.89484829, 1.91054928, 3.85516167, 0.99926049, 0.00836420, -0.01639934, -0.03376069, 0.05654111, 0.91309631, -0.57136071, 87.60900116, 1209.97497559, 39.38999939, 0.00000000
1, 3.2300, 323, -0.02301038, -0.89420557, -0.43408820, -1.18285072, -3.99878550, -0.73469275, 14.92858315, -59.81355286, 38.13091278, -0.90549046, 1.89955354, 3.81532836, 0.99927300, 0.00844812, -0.01630326, -0.03341416, 0.05622210, 0.90994442, -0.56523621, 87.60900116, 1209.97497559, 39.38999939, 0.00000000
1, 3.2400, 324, -0.02308623, -0.89206719, -0.43641210, -0.75929236, -2.73781180, -1.04346609, 14.92858315, -59.81355286, 38.13091278, -0.91219938, 1.89687562, 3.78571391, 0.99928141, 0.00850165, -0.01628015, -0.03315669, 0.05619460, 0.90794235, -0.56291354, 87.60900116, 1209.97497559, 39.38999939, 0.00000000
1, 3.2500, 325, -0.02620428, -0.89288431, -0.43580586, -0.53579998, -1.70710278, -1.00490248, 15.18453217, -59.24182510, 38.09284973, -0.92043310, 1.89804423, 3.79110122, 0.99927902, 0.00857455, -0.01628755, -0.03320491, 0.05931869, 0.90886307, -0.56351793, 87.60900116, 1209.97497559, 39.38999939, 0.00000000
1, 3.2600, 326, -0.02758986, -0.89842081, -0.43001467, -0.29809976, -0.69799119, -0.68558306, 14.92858315, -62.23241043, 38.07381439, -0.92312890, 1.90112472, 3.78164172, 0.99928123, 0.00859759, -0.01631435, -0.03312301, 0.06074232, 0.91450739, -0.56930614, 87.60900116, 1209.97497559, 39.38999939, 0.00000000
1, 3.2700, 327, -0.02827835, -0.90492064, -0.42434588, -0.05396066, -0.28808010, -0.44919431, 15.33078861, -61.04496765, 37.86446381, -0.92353976, 1.90389049, 3.77704549, 0.99928206, 0.00860132, -0.01633869, -0.03308317, 0.06148962, 0.92103398, -0.57497263, 87.60900116, 1209.97497559, 39.38999939, 0.00000000
1, 3.2800, 328, -0.02359679, -0.91171771, -0.42000511, 0.24963611, -0.63390177, -0.14098416, 14.85545158, -59.98946762, 37.61705017, -0.92084783, 1.90237164, 3.77090144, 0.99928427, 0.00857653, -0.01632668, -0.03302911, 0.05680566, 0.92780340, -0.57931387, 87.60900116, 1209.97497559, 39.38999939, 0.00000000
1, 3.2900, 329, -0.02079830, -0.91683441, -0.41570365, 0.21534064, -1.04842877, 0.00861063, 14.85545158, -59.98946762, 37.61705017, -0.91840464, 1.89768231, 3.76167727, 0.99928772, 0.00855257, -0.01628718, -0.03294801, 0.05394846, 0.93286586, -0.58361816, 87.60900116, 1209.97497559, 39.38999939, 0.00000000
1, 3.3000, 330, -0.01948073, -0.91909915, -0.40995181, 0.14684209, -1.32257617, -0.04967832, 14.96514320, -60.07742691, 37.38866425, -0.80711991, 1.91569948, 3.78465343, 0.99928629, 0.00759056, -0.01647477, -0.03313356, 0.05263869, 0.93462694, -0.58937734, 87.60900116, 1209.97497559, 39.38999939, 0.00000000
1, 3.3100, 331, -0.02083224, -0.91984874, -0.40612587, 0.54322791, -1.47328281, -0.08921623, 15.44048595, -61.70465851, 37.99768829, -0.80127352, 1.91005135, 3.77138638, 0.99929142, 0.00753606, -0.01642808, -0.03301671, 0.05419969, 0.93386567, -0.59321892, 87.60900116, 1209.97497559, 39.38999939, 0.00000000
1, 3.3200, 332, -0.02049206, -0.92220294, -0.40536982, 0.92254966, -1.69245493, -0.14771967, 15.65986919, -60.73711777, 37.52188873, -0.79158080, 1.90396738, 3.75612330, 0.99929732, 0.00744761, -0.01637881, -0.03288188, 0.05375187, 0.93607306, -0.59398067, 87.60900116, 1209.97497559, 39.38999939, 0.00000000
1, 3.3300, 333, -0.01584023, -0.92535734, -0.40792620, 1.11974335, -1.60428369, -0.19920427, 15.11140537, -60.07742691, 37.61705017, -0.77991062, 1.89874303, 3.74156308, 0.99930304, 0.00734228, -0.01633753, -0.03275296, 0.04900996, 0.93903726, -0.59142995, 87.60900116, 1209.97497559, 39.38999939, 0.00000000
1, 3.3400, 334, -0.01511809, -0.92576659, -0.40838277, 0.34616947, -1.38792050, -0.15713187, 15.11140537, -60.07742691, 37.61705017, -0.77606416, 1.89407933, 3.72862768, 0.99930769, 0.00730557, -0.01629878, -0.03263935, 0.04820085, 0.93930739, -0.59097815, 87.60900116, 1209.97497559, 39.38999939, 0.00000000
1, 3.3500, 335, -0.01398348, -0.92259425, -0.40939376, -0.70387352, -0.59305197, 0.05615362, 15.40392017, -59.32978439, 37.90252686, -0.66654700, 1.94974434, 3.75491905, 0.99929839, 0.00637012, -0.01681394, -0.03285559, 0.04725114, 0.93568277, -0.58996654, 87.60900116, 1209.97497559, 39.38999939, 0.00000000
1, 3.3600, 336, -0.01316445, -0.91865832, -0.41474107, -1.23331320, 0.27594033, 0.18151301, 15.29422855, -60.78109741, 37.73123932, -0.67896503, 1.94930935, 3.75741267, 0.99929702, 0.00647865, -0.01680645, -0.03287914, 0.04717655, 0.93041152, -0.58461130, 87.60900116, 1209.97497559, 39.38999939, 0.00000000
1, 3.3700, 337, -0.01198600, -0.91709805, -0.41791692, -1.00729930, 0.84151828, 0.33333853, 15.29422855, -60.60517502, 38.05478668, -0.68931502, 1.94997334, 3.76579332, 0.99929398, 0.00657033, -0.01680879, -0.03295377, 0.04600590, 0.92905676, -0.58143270, 87.60900116, 1209.97497559, 39.38999939, 0.00000000
1, 3.3800, 338, -0.01016784, -0.91969997, -0.41945416, -0.78253055, 1.30160069, 0.64115471, 15.33078861, -60.25334549, 37.92155838, -0.69756144, 1.94987941, 3.77978611, 0.99928951, 0.00664427, -0.01680479, -0.03307700, 0.04419863, 0.93181360, -0.57989323, 87.60900116, 1209.97497559, 39.38999939, 0.00000000
1, 3.3900, 339, -0.00701904, -0.92375249, -0.41464892, -0.78953093, 1.39735353, 1.08264673, 15.33078861, -60.25334549, 37.92155838, -0.70595974, 1.94623232, 3.79655695, 0.99928468, 0.00671891, -0.01676958, -0.03322431, 0.04100697, 0.93600786, -0.58469820, 87.60900116, 1209.97497559, 39.38999939, 0.00000000
1, 3.4000, 340, -0.00193265, -0.92824745, -0.41487175, -1.50867999, 1.30281031, 1.27622104, 15.14796638, -58.93396759, 37.61705017, -0.69183189, 1.97108912, 3.83811140, 0.99926960, 0.00660904, -0.01698804, -0.03358578, 0.03596583, 0.94058901, -0.58447278, 87.60900116, 1209.97497559, 39.38999939, 0.00000000
1, 3.4100, 341, 0.00086797, -0.93047279, -0.41618013, -2.75510669, 0.43646988, 1.19150794, 15.65986919, -62.01251602, 37.76930618, -0.71964192, 1.96225238, 3.84548712, 0.99926716, 0.00685006, -0.01690239, -0.03365379, 0.03344065, 0.94282174, -0.58315486, 87.60900116, 1209.97497559, 39.38999939, 0.00000000
1, 3.4200, 342, 0.00404488, -0.93026155, -0.41894385, -4.38811779, -0.97841585, 0.88550562, 15.47705078, -60.73711777, 37.80736542, -0.76337957, 1.94997275, 3.83779931, 0.99926859, 0.00722675, -0.01678294, -0.03359254, 0.03006556, 0.94327098, -0.58038950, 87.60900116, 1209.97497559, 39.38999939, 0.00000000
1, 3.4300, 343, 0.00523801, -0.92810392, -0.42131528, -5.64548779, -2.23539877, 0.54651690, 15.87925720, -61.22089005, 37.71220779, -0.81930250, 1.93522084, 3.81656837, 0.99927336, 0.00770704, -0.01663933, -0.03341475, 0.02862358, 0.94201386, -0.57801437, 87.60900116, 1209.97497559, 39.38999939, 0.00000000
1, 3.4400, 344, 0.00515585, -0.92780757, -0.42676008, -5.62991428, -3.08386803, -0.03387462, 15.87925720, -61.22089005, 37.71220779, -0.87477446, 1.92193484, 3.78519988, 0.99928063, 0.00818241, -0.01650954, -0.03314843, 0.02846434, 0.94270909, -0.57256353, 87.60900116, 1209.97497559, 39.38999939, 0.00000000
1, 3.4500, 345, 0.00187095, -0.93020236, -0.43272069, -5.11614799, -3.44754696, -0.64075500, 15.44048595, -58.67009354, 37.65511322, -0.92226946, 1.92435348, 3.77111363, 0.99928081, 0.00859524, -0.01651795, -0.03303259, 0.03160995, 0.94599795, -0.56659389, 87.60900116, 1209.97497559, 39.38999939, 0.00000000
1, 3.4600, 346, -0.00230298, -0.93311870, -0.43143335, -4.83967686, -3.24586749, -1.30533659, 14.96514320, -59.37376022, 37.69317627, -0.96963364, 1.92172897, 3.73323035, 0.99928844, 0.00900208, -0.01648438, -0.03270888, 0.03584053, 0.94972712, -0.56786609, 87.60900116, 1209.97497559, 39.38999939, 0.00000000
1, 3.4700, 347, -0.00278402, -0.93427753, -0.42003185, -3.77601862, -3.10947418, -1.79791653, 15.47705078, -59.41773987, 38.20703888, -1.00635326, 1.92410791, 3.69506025, 0.99929601, 0.00931746, -0.01649775, -0.03238147, 0.03633867, 0.95160788, -0.57925481, 87.60900116, 1209.97497559, 39.38999939, 0.00000000
1, 3.4800, 348, -0.00275918, -0.93456131, -0.41151074, -3.02214909, -3.05067444, -1.88687873, 15.14796638, -62.45230865, 37.82640076, -1.03551710, 1.92753339, 3.65750003, 0.99930364, 0.00956733, -0.01652252, -0.03205838, 0.03637280, 0.95243478, -0.58776432, 87.60900116, 1209.97497559, 39.38999939, 0.00000000
1, 3.4900, 349, -0.02323640, -0.95917696, -0.39258829, -3.88106966, -2.43858004, 0.16770189, 15.47705078, -61.26486588, 37.90252686, -1.07370651, 1.91520751, 3.63395858, 0.99930888, 0.00989358, -0.01640638, -0.03185764, 0.05678455, 0.97760993, -0.60667878, 87.60900116, 1209.97497559, 39.38999939, 0.00000000
1, 3.5000, 350, -0.01107747, -0.93606198, -0.39133596, -6.37724781, 0.57404882, 3.66644669, 15.47705078, -61.26486588, 37.90252686, -1.11131406, 1.89021921, 3.67682791, 0.99929720, 0.01022071, -0.01617418, -0.03223487, 0.04420514, 0.95538288, -0.60792840, 87.60900116, 1209.97497559, 39.38999939, 0.00000000
1, 3.5100, 351, -0.00329984, -0.93037355, -0.38117972, -5.07791519, 0.91963756, 4.14435148, 15.14796638, -59.06590652, 37.46479034, -1.16287673, 1.85708678, 3.70021582, 0.99929070, 0.01066438, -0.01586857, -0.03244331, 0.03592604, 0.95034313, -0.61808836, 87.60900116, 1209.97497559, 39.38999939, 0.00000000
1, 3.5200, 352, -0.00044654, -0.92518383, -0.37695757, -4.40214729, 1.00501657, 4.49564409, 15.18453217, -59.06590652, 37.50285721, -1.20774543, 1.82121575, 3.72636843, 0.99928415, 0.01104915, -0.01554052, -0.03267446, 0.03247007, 0.94596815, -0.62231332, 87.60900116, 1209.97497559, 39.38999939, 0.00000000
1, 3.5300, 353, -0.00055102, -0.92919803, -0.37178764, -4.60859728, 0.23345929, 4.35700750, 16.46429062, -60.16538239, 37.59801865, -1.25445843, 1.78317332, 3.74491167, 0.99927962, 0.01144823, -0.01519360, -0.03283903, 0.03191619, 0.95076334, -0.62748766, 87.60900116, 1209.97497559, 39.38999939, 0.00000000
1, 3.5400, 354, -0.00455750, -0.92949980, -0.36592603, -5.48692989, -0.86160976, 3.73900914, 15.29422855, -59.46171951, 37.76930618, -1.30955780, 1.74578524, 3.75039458, 0.99927765, 0.01191882, -0.01485120, -0.03289058, 0.03526524, 0.95196432, -0.63334990, 87.60900116, 1209.97497559, 39.38999939, 0.00000000
1, 3.5500, 355, -0.00847100, -0.93770200, -0.36362764, -6.70294952, -1.88644230, 2.85984755, 15.29422855, -59.46171951, 37.76930618, -1.34416878, 1.71709442, 3.76767015, 0.99927282, 0.01221469, -0.01458923, -0.03304290, 0.03859466, 0.96111172, -0.63564438, 87.60900116, 1209.97497559, 39.38999939, 0.00000000
1, 3.5600, 356, -0.01342602, -0.93724930, -0.36407849, -8.84903240, -3.04085207, 3.17613196, 15.14796638, -60.51721954, 37.52188873, -1.43214512, 1.67494774, 3.74913859, 0.99927408, 0.01296755, -0.01419842, -0.03288808, 0.04293868, 0.96162713, -0.63518846, 87.60900116, 1209.97497559, 39.38999939, 0.00000000
1, 3.5700, 357, -0.01283575, -0.93176532, -0.36723265, -9.91686726, -4.14936304, 3.29672050, 14.63606358, -59.68161774, 37.16028214, -1.53045321, 1.62670290, 3.72064877, 0.99927694, 0.01380772, -0.01375292, -0.03264638, 0.04154025, 0.95781517, -0.63201565, 87.60900116, 1209.97497559, 39.38999939, 0.00000000
1, 3.5800, 358, -0.00878917, -0.92486191, -0.36821586, -9.75932503, -4.29133701, 3.66239810, 15.00170898, -59.15386200, 36.93189621, -1.62717223, 1.57451141, 3.69270921, 0.99927950, 0.01463321, -0.01327380, -0.03240808, 0.03661447, 0.95261133, -0.63101155, 87.60900116, 1209.97497559, 39.38999939, 0.00000000
1, 3.5900, 359, -0.00361209, -0.91359627, -0.36829394, -9.45716095, -4.04937935, 3.70171690, 14.30698395, -58.88999176, 37.42672729, -1.72092593, 1.52301741, 3.66739058, 0.99928057, 0.01543355, -0.01280164, -0.03219160, 0.03051471, 0.94301581, -0.63091099, 87.60900116, 1209.97497559, 39.38999939, 0.00000000
1, 3.6000, 360, -0.00444231, -0.90950882, -0.36922750, -9.13257027, -3.38587165, 3.15216756, 14.30698395, -58.88999176, 37.42672729, -1.79255581, 1.48647285, 3.67049885, 0.99927419, 0.01604839, -0.01246240, -0.03222185, 0.03057589, 0.94043839, -0.62995225, 87.60900116, 1209.97497559, 39.38999939, 0.00000000
1, 3.6100, 361, -0.00619584, -0.90605831, -0.37322184, -8.15488338, -3.08978963, 2.29406404, 14.96514320, -60.25334549, 37.14124680, -1.87336183, 1.45183551, 3.64828396, 0.99927294, 0.01674107, -0.01214087, -0.03203210, 0.03174046, 0.93822873, -0.62593400, 87.60900116, 1209.97497559, 39.38999939, 0.00000000
1, 3.6200, 362, -0.00948088, -0.90233529, -0.36867729, -7.10311985, -3.29315400, 1.58343756, 15.36735439, -59.41773987, 37.29350281, -1.94346821, 1.42259336, 3.62174582, 0.99927318, 0.01734160, -0.01187029, -0.03180387, 0.03449643, 0.93579739, -0.63044953, 87.60900116, 1209.97497559, 39.38999939, 0.00000000
1, 3.6300, 363, -0.01442842, -0.89886731, -0.36104512, -6.92192793, -4.55145073, 0.95876652, 15.25766277, -60.03344727, 36.49415970, -2.01120186, 1.39313006, 3.58132863, 0.99927717, 0.01792010, -0.01160088, -0.03145402, 0.03893999, 0.93350208, -0.63805425, 87.60900116, 1209.97497559, 39.38999939, 0.00000000
1, 3.6400, 364, -0.02853023, -0.89999670, -0.35656121, -7.29969597, -5.85242510, 0.58100498, 14.74575996, -59.46171951, 36.51319122, -2.08216095, 1.36101937, 3.52744484, 0.99928415, 0.01852487, -0.01131009, -0.03098634, 0.05250213, 0.93584311, -0.64250845, 87.60900116, 1209.97497559, 39.38999939, 0.00000000
1, 3.6500, 365, -0.03687519, -0.91437042, -0.34577107, -7.43561649, -6.57282019, 0.49596217, 14.74575996, -59.46171951, 36.51319122, -2.11648822, 1.32323551, 3.49400663, 0.99929160, 0.01881094, -0.01097681, -0.03069216, 0.06023209, 0.95132011, -0.65327299, 87.60900116, 1209.97497559, 39.38999939, 0.00000000
1, 3.6600, 366, -0.04238709, -0.92355424, -0.34657404, -7.18976259, -6.10887241, 0.57527697, 14.89201736, -58.49417496, 37.17930984, -2.18619752, 1.28990352, 3.43794513, 0.99929839, 0.01940481, -0.01067696, -0.03020450, 0.06511812, 0.96123141, -0.65245730, 87.60900116, 1209.97497559, 39.38999939, 0.00000000
1, 3.6700, 367, -0.04526454, -0.93414944, -0.35612732, -7.80923700, -5.41440392, 0.83786923, 14.59950256, -58.53815460, 37.10318375, -2.26236486, 1.25734842, 3.38890386, 0.99930143, 0.02005613, -0.01038156, -0.02977842, 0.06742644, 0.97311091, -0.64286751, 87.60900116, 1209.97497559, 39.38999939, 0.00000000
1, 3.6800, 368, -0.05018555, -0.94363773, -0.36034131, -7.98617840, -4.51516914, 1.38466489, 15.29422855, -59.72559738, 36.70351410, -2.34069443, 1.22402787, 3.35027266, 0.99930078, 0.02072727, -0.01007762, -0.02944278, 0.07176499, 0.98396087, -0.63861221, 87.60900116, 1209.97497559, 39.38999939, 0.00000000
1, 3.6900, 369, -0.04760782, -0.94679797, -0.36645871, -6.84271955, -3.31851244, 2.21492672, 14.48980618, -58.62611389, 36.30384064, -2.40818405, 1.18885648, 3.32683301, 0.99929780, 0.02130492, -0.00975792, -0.02923795, 0.06859399, 0.98838866, -0.63245547, 87.60900116, 1209.97497559, 39.38999939, 0.00000000
1, 3.7000, 370, -0.04811560, -0.93510276, -0.37210333, -5.58168936, -2.21694970, 3.67564845, 14.48980618, -58.62611389, 36.30384064, -2.42553401, 1.13769495, 3.35000706, 0.99929351, 0.02144524, -0.00930300, -0.02943221, 0.06837472, 0.97755170, -0.62678981, 87.60900116, 1209.97497559, 39.38999939, 0.00000000
1, 3.7100, 371, -0.04943243, -0.91702038, -0.38543391, -6.05481195, -0.72782898, 5.80022192, 14.38011456, -58.14234161, 36.24674225, -2.48678446, 1.08276904, 3.36662531, 0.99928242, 0.02196674, -0.00880510, -0.02957183, 0.06870803, 0.95998174, -0.61345673, 87.60900116, 1209.97497559, 39.38999939, 0.00000000
1, 3.7200, 372, -0.04498540, -0.89798486, -0.39777163, -7.56321430, 0.44667453, 7.78072309, 15.29422855, -60.86905289, 36.98899078, -2.56397223, 1.01575327, 3.40193105, 0.99926412, 0.02262531, -0.00819380, -0.02987271, 0.06316829, 0.94218737, -0.60108536, 87.60900116, 1209.97497559, 39.38999939, 0.00000000
1, 3.7300, 373, -0.04447445, -0.88120645, -0.39798421, -8.89797211, 1.03012061, 9.25607204, 14.85545158, -60.03344727, 36.72254181, -2.65504646, 0.93841732, 3.44852257, 0.99923968, 0.02340264, -0.00748616, -0.03027004, 0.06137458, 0.92692184, -0.60082722, 87.60900116, 1209.97497559, 39.38999939, 0.00000000
1, 3.7400, 374, -0.03799225, -0.86635500, -0.39805308, -6.39594841, 0.81450903, 9.99975109, 14.70919418, -59.94548798, 36.64641571, -2.72124290, 0.85364121, 3.49836493, 0.99921918, 0.02396068, -0.00671900, -0.03069159, 0.05344599, 0.91344953, -0.60071766, 87.60900116, 1209.97497559, 39.38999939, 0.00000000
1, 3.7500, 375, -0.04032519, -0.86066377, -0.40357611, -3.13513947, 1.65173852, 9.67338657, 14.30698395, -60.29732513, 36.79867172, -2.74490094, 0.77404249, 3.58080721, 0.99919730, 0.02415022, -0.00600120, -0.03139538, 0.05434815, 0.90848684, -0.59518123, 87.60900116, 1209.97497559, 39.38999939, 0.00000000
1, 3.7600, 376, -0.04002547, -0.86536866, -0.40462187, -2.39714336, 2.58340979, 7.59889793, 14.30698395, -60.29732513, 36.79867172, -2.77159739, 0.71894419, 3.63761497, 0.99917942, 0.02437079, -0.00550136, -0.03188058, 0.05290326, 0.91354281, -0.59413397, 87.60900116, 1209.97497559, 39.38999939, 0.00000000
1, 3.7700, 377, -0.03076559, -0.87252796, -0.41392568, -2.21018577, 2.16783142, 4.74190187, 14.81888676, -59.37376022, 36.26577759, -2.79567671, 0.68716097, 3.67753744, 0.99916506, 0.02457381, -0.00520897, -0.03222314, 0.04293754, 0.92114890, -0.58481741, 87.60900116, 1209.97497559, 39.38999939, 0.00000000
1, 3.7800, 378, -0.02640422, -0.88352907, -0.40417257, -3.15867472, 1.91367114, 0.90738970, 14.56293774, -58.88999176, 36.49415970, -2.82830548, 0.68802941, 3.69665766, 0.99915254, 0.02485942, -0.00520322, -0.03239151, 0.03833691, 0.93261003, -0.59455091, 87.60900116, 1209.97497559, 39.38999939, 0.00000000
1, 3.7900, 379, -0.04048619, -0.88269186, -0.39475137, -6.05129147, 3.46948814, -2.25030255, 14.23385715, -58.88999176, 36.47512817, -2.88986945, 0.72401553, 3.71284866, 0.99913222, 0.02540706, -0.00549600, -0.03254333, 0.05283239, 0.93266249, -0.60392290, 87.60900116, 1209.97497559, 39.38999939, 0.00000000
1, 3.8000, 380, -0.05239051, -0.86497039, -0.38884681, -7.33062601, 6.39954042, -3.66136479, 14.81888676, -59.63763428, 36.36093521, -2.95788932, 0.77874225, 3.77160263, 0.99909663, 0.02601856, -0.00594050, -0.03307107, 0.06564903, 0.91617310, -0.60975337, 87.60900116, 1209.97497559, 39.38999939, 0.00000000
1, 3.8100, 381, -0.05206177, -0.84929156, -0.39106920, -4.29224634, 9.37635326, -4.82098150, 14.81888676, -59.63763428, 36.36093521, -3.00395846, 0.86536545, 3.82866478, 0.99906349, 0.02644828, -0.00666928, -0.03359058, 0.06656800, 0.90145737, -0.60746372, 87.60900116, 1209.97497559, 39.38999939, 0.00000000
1, 3.8200, 382, -0.04363333, -0.83265972, -0.39402708, -1.48098052, 11.37019062, -5.78962898, 14.74575996, -59.37376022, 36.58932114, -3.02251744, 0.97006476, 3.90042996, 0.99902976, 0.02664514, -0.00755998, -0.03424116, 0.05985870, 0.88528162, -0.60445547, 87.60900116, 1209.97497559, 39.38999939, 0.00000000
1, 3.8300, 383, -0.03246806, -0.85331899, -0.40583754, -0.73904413, 13.84212685, -6.54853201, 14.85545158, -59.32978439, 37.04608917, -3.03440213, 1.09318173, 3.99079418, 0.99898911, 0.02679184, -0.00860867, -0.03505784, 0.05071422, 0.90617007, -0.59259796, 87.60900116, 1209.97497559, 39.38999939, 0.00000000
1, 3.8400, 384, -0.02292900, -0.90912712, -0.42327145, 2.71403909, 17.41062737, -6.95868874, 15.14796638, -58.49417496, 36.83673477, -3.01289129, 1.23689735, 4.11278057, 0.99894226, 0.02665812, -0.00983978, -0.03615215, 0.04355859, 0.96191984, -0.57512063, 87.60900116, 1209.97497559, 39.38999939, 0.00000000
1, 3.8500, 385, -0.00669996, -0.99110502, -0.44737366, 10.78060532, 18.90240097, -5.12386417, 14.92858315, -57.96642685, 37.00802231, -2.91050148, 1.37254238, 4.27970123, 0.99889737, 0.02582372, -0.01101699, -0.03762799, 0.02980006, 1.04264772, -0.55102962, 87.60900116, 1209.97497559, 39.38999939, 0.00000000
