SensorId, TimeStamp (s), FrameNumber, AccX (g), AccY (g), AccZ (g), GyroX (deg/s), GyroY (deg/s), GyroZ (deg/s), MagX (uT), MagY (uT), MagZ (uT), EulerX (deg), EulerY (deg), EulerZ (deg), QuatW, QuatX, QuatY, QuatZ, LinAccX (g), LinAccY (g), LinAccZ (g), Pressure (kPa), Altitude (m), Temperature (degC), HeaveMotion (m)
1, -0.0001, 0, 0.02875612, -0.92751998, -0.41117758, -5.92563820, 1.70446014, -1.54566038, 13.72195435, -61.00099564, 42.05150604, -0.31257671, -0.18781230, -0.06112366, 0.99999487, 0.00272861, 0.00163751, 0.00053787, -0.03216117, 0.93258065, -0.58880377, 87.59200287, 1211.56689453, 39.57999802, 0.00000000
1, 0.0099, 1, 0.03509483, -0.91916597, -0.41507912, -6.75255966, 1.27944505, -1.13018608, 14.01446915, -61.26486588, 41.57570648, -0.38283813, -0.17085624, -0.09234774, 0.99999303, 0.00334208, 0.00148830, 0.00081086, -0.03818835, 0.92535436, -0.58489686, 87.59200287, 1211.56689453, 39.57999802, 0.00000000
1, 0.0199, 2, 0.04158487, -0.91304928, -0.41807199, -6.84975195, 1.21782720, -0.55109996, 13.61225796, -60.56120300, 41.63280487, -0.45092386, -0.16079943, -0.08062333, 0.99999106, 0.00393602, 0.00140046, 0.00070909, -0.04445290, 0.92047745, -0.58189631, 87.59200287, 1211.56689453, 39.57999802, 0.00000000
1, 0.0299, 3, 0.03771783, -0.90596563, -0.42046338, -6.87703276, 1.81344879, -0.25724131, 13.86821175, -60.51721954, 41.38538742, -0.51902574, -0.15095116, -0.06227769, 0.99998879, 0.00453005, 0.00131482, 0.00054944, -0.04041693, 0.91458100, -0.57949585, 87.59200287, 1211.56689453, 39.57999802, 0.00000000
1, 0.0399, 4, 0.03113944, -0.90041637, -0.42871061, -6.74046707, 2.27454710, -0.05460379, 14.08759975, -61.48476028, 42.18473053, -0.58556277, -0.14102440, -0.03895990, 0.99998623, 0.00511039, 0.00122892, 0.00034627, -0.03366549, 0.91020620, -0.57123822, 87.59200287, 1211.56689453, 39.57999802, 0.00000000
1, 0.0499, 5, 0.03450617, -0.89723945, -0.43382016, -6.16894722, 2.44971681, 0.00006508, 14.08759975, -61.48476028, 42.18473053, -0.64631546, -0.13083827, -0.01408039, 0.99998343, 0.00564027, 0.00114107, 0.00012931, -0.03685310, 0.90813118, -0.56611776, 87.59200287, 1211.56689453, 39.57999802, 0.00000000
1, 0.0599, 6, 0.03574976, -0.89849693, -0.43215412, -5.56484461, 2.98537683, 0.06221313, 14.19729233, -60.42926025, 41.80408859, -0.71720904, -0.11825678, -0.02507165, 0.99997991, 0.00625901, 0.00103060, 0.00022525, -0.03790493, 0.91045338, -0.56777203, 87.59200287, 1211.56689453, 39.57999802, 0.00000000
1, 0.0699, 7, 0.03827772, -0.89640075, -0.43124995, -4.83345413, 3.48943472, 0.01783744, 13.86821175, -60.42926025, 41.88021851, -0.76419592, -0.10385382, 0.00873874, 0.99997735, 0.00666874, 0.00090678, -0.00007021, -0.04018167, 0.90943742, -0.56866324, 87.59200287, 1211.56689453, 39.57999802, 0.00000000
1, 0.0799, 8, 0.04206575, -0.89685911, -0.43548867, -4.10187578, 3.30021811, 0.39834365, 13.90477753, -60.38528061, 41.74699402, -0.80389810, -0.09368250, 0.04210385, 0.99997509, 0.00701497, 0.00082009, -0.00036168, -0.04376147, 0.91063946, -0.56441486, 87.59200287, 1211.56689453, 39.57999802, 0.00000000
1, 0.0899, 9, 0.04177901, -0.89552915, -0.43698990, -3.02834320, 2.73373508, 0.92807668, 13.97790337, -61.13293076, 42.07053757, -0.83298111, -0.09067565, 0.07207754, 0.99997306, 0.00726856, 0.00079585, -0.00062323, -0.04337117, 0.90989506, -0.56290567, 87.59200287, 1211.56689453, 39.57999802, 0.00000000
1, 0.0999, 10, 0.04378811, -0.89002788, -0.43597472, -1.64820588, 2.13705707, 1.35076702, 13.97790337, -61.13293076, 42.07053757, -0.84843588, -0.09400038, 0.09780695, 0.99997199, 0.00740323, 0.00082660, -0.00084743, -0.04540033, 0.90475464, -0.56391555, 87.59200287, 1211.56689453, 39.57999802, 0.00000000
1, 0.1099, 11, 0.04287945, -0.88851964, -0.43382004, -0.03914467, 2.10939550, 1.71440637, 13.68538952, -60.91303253, 42.01344299, -0.88234591, -0.09440560, 0.08273951, 0.99996972, 0.00769924, 0.00082938, -0.00071567, -0.04456634, 0.90348983, -0.56606650, 87.59200287, 1211.56689453, 39.57999802, 0.00000000
1, 0.1199, 12, 0.03813472, -0.89046586, -0.43271661, 1.17678583, 2.30563664, 1.83785975, 14.19729233, -59.98946762, 42.12763596, -0.86943012, -0.10144951, 0.11084148, 0.99997038, 0.00758627, 0.00089263, -0.00096053, -0.03985191, 0.90573835, -0.56716526, 87.59200287, 1211.56689453, 39.57999802, 0.00000000
1, 0.1299, 13, 0.03738598, -0.89277458, -0.42409539, 2.64585924, 2.24626946, 1.97274280, 13.61225796, -61.04496765, 41.55667496, -0.84183156, -0.10997974, 0.13834792, 0.99997181, 0.00734513, 0.00096860, -0.00120023, -0.03925079, 0.90766895, -0.57579195, 87.59200287, 1211.56689453, 39.57999802, 0.00000000
1, 0.1399, 14, 0.03827639, -0.89578748, -0.41767669, 3.44976759, 2.17969155, 2.23255801, 13.61225796, -61.88057327, 42.07053757, -0.80619293, -0.12117619, 0.16599715, 0.99997371, 0.00703376, 0.00106763, -0.00144112, -0.04031530, 0.91009092, -0.58221895, 87.59200287, 1211.56689453, 39.57999802, 0.00000000
1, 0.1499, 15, 0.04027796, -0.90266913, -0.41828877, 3.33948302, 1.82891428, 2.64739990, 13.61225796, -61.88057327, 42.07053757, -0.77172172, -0.13762492, 0.19222459, 0.99997520, 0.00673246, 0.00121227, -0.00166935, -0.04255997, 0.91635829, -0.58161491, 87.59200287, 1211.56689453, 39.57999802, 0.00000000
1, 0.1599, 16, 0.03906942, -0.91285229, -0.41742113, 4.03944492, 1.52307212, 2.79703307, 13.94133854, -60.29732513, 41.95634842, -0.72625774, -0.15338683, 0.17392650, 0.99997795, 0.00633571, 0.00134814, -0.00150928, -0.04166060, 0.92586553, -0.58249080, 87.59200287, 1211.56689453, 39.57999802, 0.00000000
1, 0.1699, 17, 0.03426732, -0.91670054, -0.40968600, 4.70325279, 1.84075284, 2.57316303, 14.12416077, -60.20936584, 42.07053757, -0.67818946, -0.16915420, 0.19936390, 0.99997997, 0.00591570, 0.00148642, -0.00173101, -0.03712932, 0.92885482, -0.59023601, 87.59200287, 1211.56689453, 39.57999802, 0.00000000
1, 0.1799, 18, 0.03358024, -0.91807705, -0.41004181, 4.13624907, 1.89630556, 2.04871655, 13.79508114, -61.83659363, 42.33699036, -0.63585627, -0.17993821, 0.22334553, 0.99998152, 0.00554578, 0.00158104, -0.00194031, -0.03665796, 0.92944276, -0.58988881, 87.59200287, 1211.56689453, 39.57999802, 0.00000000
1, 0.1899, 19, 0.03485321, -0.92184788, -0.40353203, 3.71912098, 1.30175149, 1.47498715, 14.70919418, -60.38528061, 42.43214417, -0.59799445, -0.18798313, 0.23972382, 0.99998295, 0.00521501, 0.00165135, -0.00208339, -0.03808098, 0.93252653, -0.59640568, 87.59200287, 1211.56689453, 39.57999802, 0.00000000
1, 0.1999, 20, 0.03494061, -0.92100447, -0.40081739, 3.24055600, 0.81910825, 1.37841296, 14.70919418, -60.38528061, 42.43214417, -0.56510252, -0.19715066, 0.25149700, 0.99998403, 0.00492763, 0.00173126, -0.00218621, -0.03831949, 0.93106925, -0.59912622, 87.59200287, 1211.56689453, 39.57999802, 0.00000000
1, 0.2099, 21, 0.03806540, -0.91875732, -0.40122870, 2.20218968, 0.70889151, 1.32653809, 14.16072655, -59.59365463, 41.93731308, -0.51916122, -0.19945677, 0.21690769, 0.99998653, 0.00452721, 0.00174914, -0.00188497, -0.04158166, 0.92825973, -0.59871995, 87.59200287, 1211.56689453, 39.57999802, 0.00000000
1, 0.2199, 22, 0.04023554, -0.91887933, -0.40508270, 2.23768616, 0.83010197, 1.27624309, 13.79508114, -59.85753250, 42.14667130, -0.49631971, -0.20766173, 0.22877432, 0.99998701, 0.00432756, 0.00182082, -0.00198856, -0.04380261, 0.92770219, -0.59487206, 87.59200287, 1211.56689453, 39.57999802, 0.00000000
1, 0.2299, 23, 0.03650415, -0.92272294, -0.41044319, 2.73809409, 0.64134890, 1.51683974, 14.48980618, -62.23241043, 42.62246704, -0.46849501, -0.21884264, 0.23971155, 0.99998772, 0.00408437, 0.00191829, -0.00208405, -0.04024484, 0.93108517, -0.58951485, 87.59200287, 1211.56689453, 39.57999802, 0.00000000
1, 0.2399, 24, 0.02746356, -0.92688835, -0.40592575, 3.44340086, -0.14362462, 1.58607006, 14.38011456, -61.30884552, 42.39408493, -0.43388832, -0.23389801, 0.24346572, 0.99998856, 0.00378203, 0.00204917, -0.00211689, -0.03144046, 0.93469888, -0.59403580, 87.59200287, 1211.56689453, 39.57999802, 0.00000000
1, 0.2499, 25, 0.02240432, -0.92386538, -0.39525193, 3.46866083, -1.00169563, 1.60310948, 14.38011456, -61.30884552, 42.39408493, -0.39932936, -0.25264278, 0.23947148, 0.99998933, 0.00348017, 0.00221199, -0.00208208, -0.02669160, 0.93104738, -0.60471308, 87.59200287, 1211.56689453, 39.57999802, 0.00000000
1, 0.2599, 26, 0.01517790, -0.92905426, -0.40564469, 1.93233299, -1.11098015, 1.25394678, 13.53913212, -60.47323990, 42.03247452, -0.35906509, -0.30820596, 0.18509230, 0.99999017, 0.00312907, 0.00269464, -0.00160679, -0.01994115, 0.93570602, -0.59432173, 87.59200287, 1211.56689453, 39.57999802, 0.00000000
1, 0.2699, 27, 0.01064466, -0.94284207, -0.40745458, 2.17573142, -1.02764547, 0.46393010, 13.17348671, -60.64915848, 42.16569901, -0.33760870, -0.31665900, 0.17670941, 0.99999070, 0.00294191, 0.00276789, -0.00153393, -0.01613634, 0.94889760, -0.59251201, 87.59200287, 1211.56689453, 39.57999802, 0.00000000
1, 0.2799, 28, 0.01205949, -0.94895744, -0.39508325, 2.61577415, -0.28465369, -0.69954246, 14.01446915, -61.44078064, 42.45117950, -0.31167075, -0.31145468, 0.17014496, 0.99999154, 0.00271579, 0.00272198, -0.00147739, -0.01754469, 0.95455933, -0.60488600, 87.59200287, 1211.56689453, 39.57999802, 0.00000000
1, 0.2899, 29, 0.02048021, -0.94394583, -0.39378616, 0.71919888, -0.13860083, -1.09496963, 14.52637196, -61.79261780, 42.58440399, -0.30469686, -0.30203411, 0.16409712, 0.99999201, 0.00265519, 0.00263954, -0.00142500, -0.02581143, 0.94925880, -0.60618550, 87.59200287, 1211.56689453, 39.57999802, 0.00000000
1, 0.2999, 30, 0.02676634, -0.94504678, -0.39944834, -1.94920492, -0.39826906, -1.18015540, 14.05103493, -62.01251602, 42.39408493, -0.32448611, -0.29289338, 0.15644963, 0.99999189, 0.00282817, 0.00255983, -0.00135803, -0.03194042, 0.95056075, -0.60052305, 87.59200287, 1211.56689453, 39.57999802, 0.00000000
1, 0.3099, 31, 0.03162875, -0.94619089, -0.39774191, -2.16981530, 0.06173480, -1.08191788, 14.05103493, -62.01251602, 42.39408493, -0.29710063, -0.29249233, 0.10564006, 0.99999297, 0.00259033, 0.00255485, -0.00091526, -0.03667641, 0.95188117, -0.60222906, 87.59200287, 1211.56689453, 39.57999802, 0.00000000
1, 0.3199, 32, 0.03406497, -0.93843496, -0.40018272, -2.47435594, -0.02699382, -1.04769504, 14.08759975, -62.40832901, 42.37504959, -0.32199946, -0.28304362, 0.10215269, 0.99999267, 0.00280776, 0.00247251, -0.00088450, -0.03906197, 0.94388235, -0.59978998, 87.59200287, 1211.56689453, 39.57999802, 0.00000000
1, 0.3299, 33, 0.03395466, -0.93252760, -0.40180311, -3.27901387, -0.55077338, -0.88046151, 13.46600056, -60.78109741, 42.73666000, -0.35509971, -0.27726382, 0.09492193, 0.99999195, 0.00309681, 0.00242213, -0.00082085, -0.03882854, 0.93850243, -0.59816724, 87.59200287, 1211.56689453, 39.57999802, 0.00000000
1, 0.3399, 34, 0.03209167, -0.92674601, -0.40088966, -3.86939788, -0.86588514, -0.77980995, 13.97790337, -60.95701218, 42.26086044, -0.39417964, -0.27369851, 0.08547270, 0.99999094, 0.00343807, 0.00239102, -0.00073767, -0.03688899, 0.93336958, -0.59907687, 87.59200287, 1211.56689453, 39.57999802, 0.00000000
1, 0.3499, 35, 0.02957864, -0.92765278, -0.40575427, -4.13370562, -1.19189227, -0.90890330, 13.75851536, -62.45230865, 42.45117950, -0.43603581, -0.27030444, 0.07261992, 0.99998975, 0.00380361, 0.00236124, -0.00062475, -0.03431860, 0.93498582, -0.59420753, 87.59200287, 1211.56689453, 39.57999802, 0.00000000
1, 0.3599, 36, 0.03183822, -0.92846543, -0.40428931, -4.17908907, -1.68515992, -1.20038760, 13.75851536, -62.45230865, 42.45117950, -0.46723568, -0.26829436, 0.01164671, 0.99998903, 0.00407714, 0.00234170, -0.00009209, -0.03652038, 0.93648970, -0.59566748, 87.59200287, 1211.56689453, 39.57999802, 0.00000000
1, 0.3699, 37, 0.03297979, -0.92235613, -0.40792528, -4.26453209, -1.90627050, -1.36297977, 14.12416077, -62.58424377, 42.12763596, -0.51072234, -0.26373181, -0.00950371, 0.99998742, 0.00445706, 0.00230110, 0.00009319, -0.03761806, 0.93098164, -0.59202677, 87.59200287, 1211.56689453, 39.57999802, 0.00000000
1, 0.3799, 38, 0.03278211, -0.91753352, -0.40453911, -4.63851357, -1.92351222, -1.53798079, 14.23385715, -60.38528061, 42.24182510, -0.55797422, -0.25765982, -0.03140099, 0.99998558, 0.00486983, 0.00224714, 0.00028497, -0.03732489, 0.92695409, -0.59540623, 87.59200287, 1211.56689453, 39.57999802, 0.00000000
1, 0.3899, 39, 0.03144259, -0.91196388, -0.39928314, -5.06717920, -1.68216503, -1.81284821, 13.90477753, -60.95701218, 41.65183640, -0.60946470, -0.24809751, -0.05206611, 0.99998343, 0.00531953, 0.00216261, 0.00046587, -0.03584287, 0.92225301, -0.60065424, 87.59200287, 1211.56689453, 39.57999802, 0.00000000
1, 0.3999, 40, 0.02753699, -0.91018242, -0.40186682, -5.48747158, -0.74113870, -1.84451330, 13.83164692, -60.60517502, 42.01344299, -0.66483468, -0.23436268, -0.06412937, 0.99998099, 0.00580287, 0.00204192, 0.00057149, -0.03172205, 0.92142010, -0.59806126, 87.59200287, 1211.56689453, 39.57999802, 0.00000000
1, 0.4099, 41, 0.02735801, -0.91294914, -0.40844229, -5.27800369, -0.13938993, -1.81492484, 13.83164692, -60.60517502, 42.01344299, -0.71127915, -0.22527231, -0.11403441, 0.99997836, 0.00620898, 0.00195965, 0.00100732, -0.03130721, 0.92510754, -0.59147596, 87.59100342, 1211.66052246, 39.61000061, 0.00000000
1, 0.4199, 42, 0.02642363, -0.91407776, -0.40929133, -4.93879223, -0.24249904, -1.64234734, 14.27041817, -59.90151215, 42.37504959, -0.76097977, -0.21132448, -0.12097608, 0.99997574, 0.00664268, 0.00183710, 0.00106794, -0.03020181, 0.92703652, -0.59061754, 87.59100342, 1211.66052246, 39.61000061, 0.00000000
1, 0.4299, 43, 0.02860267, -0.91477448, -0.40948790, -4.97052240, -0.72334456, -1.63478112, 14.05103493, -60.82507324, 42.58440399, -0.81114852, -0.19945307, -0.13226198, 0.99997282, 0.00708054, 0.00173234, 0.00116649, -0.03215772, 0.92859876, -0.59041023, 87.59100342, 1211.66052246, 39.61000061, 0.00000000
1, 0.4399, 44, 0.03134597, -0.91328359, -0.41458559, -5.00670433, -1.22678745, -1.29368842, 14.27041817, -61.79261780, 42.20376587, -0.86181593, -0.19280152, -0.14667733, 0.99996954, 0.00752283, 0.00167283, 0.00129262, -0.03474191, 0.92799747, -0.58530045, 87.59100342, 1211.66052246, 39.61000061, 0.00000000
1, 0.4499, 45, 0.03331118, -0.91308981, -0.40948594, -4.03951597, -1.68861926, -0.91963464, 14.23385715, -62.36434555, 42.20376587, -0.90292442, -0.19148937, -0.16413555, 0.99996656, 0.00788179, 0.00165972, 0.00144547, -0.03665812, 0.92860001, -0.59038818, 87.59100342, 1211.66052246, 39.61000061, 0.00000000
1, 0.4599, 46, 0.03452937, -0.91191566, -0.40934116, -3.60922813, -1.65065086, -0.93773127, 14.23385715, -62.36434555, 42.20376587, -0.92878789, -0.19252780, -0.22468041, 0.99996388, 0.00810838, 0.00166417, 0.00197425, -0.03786755, 0.92802775, -0.59052348, 87.59100342, 1211.66052246, 39.61000061, 0.00000000
1, 0.4699, 47, 0.03309913, -0.91377485, -0.40875474, -3.62741208, -1.16564250, -1.22631013, 13.86821175, -59.76956940, 41.97537994, -0.96565026, -0.18626791, -0.23885527, 0.99996102, 0.00843014, 0.00160787, 0.00209802, -0.03639561, 0.93038785, -0.59110188, 87.59100342, 1211.66052246, 39.61000061, 0.00000000
1, 0.4799, 48, 0.03357266, -0.91396028, -0.40222797, -3.64262700, -1.00653684, -1.52174985, 13.61225796, -59.63763428, 41.84215927, -1.00265157, -0.17665836, -0.25282761, 0.99995816, 0.00875304, 0.00152227, 0.00221974, -0.03672033, 0.93121123, -0.59761822, 87.59100342, 1211.66052246, 39.61000061, 0.00000000
1, 0.4899, 49, 0.03647598, -0.91335756, -0.39902279, -4.87803602, -0.97935975, -1.67560315, 14.48980618, -61.30884552, 42.27989578, -1.05201018, -0.16554931, -0.26669648, 0.99995416, 0.00918372, 0.00142326, 0.00234053, -0.03943529, 0.93136275, -0.60081071, 87.59100342, 1211.66052246, 39.61000061, 0.00000000
1, 0.4999, 50, 0.03841988, -0.91881984, -0.40276369, -6.26098156, -1.09683430, -1.44532323, 14.52637196, -60.16538239, 41.99440765, -1.11519206, -0.15702185, -0.28007406, 0.99994874, 0.00973504, 0.00134642, 0.00245732, -0.04121676, 0.93786436, -0.59705096, 87.59100342, 1211.66052246, 39.61000061, 0.00000000
1, 0.5099, 51, 0.03819586, -0.91771197, -0.40758884, -6.22560358, -1.09712601, -1.41028094, 14.52637196, -60.16538239, 41.99440765, -1.16611695, -0.14595155, -0.33589655, 0.99994314, 0.01017979, 0.00124377, 0.00294405, -0.04083413, 0.93781167, -0.59220564, 87.59100342, 1211.66052246, 39.61000061, 0.00000000
1, 0.5199, 52, 0.04121387, -0.91395950, -0.41279039, -6.24056578, -1.42316937, -1.41708994, 13.79508114, -59.85753250, 41.46151352, -1.22921109, -0.13908516, -0.35214183, 0.99993706, 0.01073035, 0.00118071, 0.00308585, -0.04368043, 0.93499500, -0.58698529, 87.59100342, 1211.66052246, 39.61000061, 0.00000000
1, 0.5299, 53, 0.03853957, -0.91394901, -0.42586532, -5.88021088, -1.85175383, -1.26899815, 13.94133854, -60.86905289, 41.67086411, -1.28884780, -0.13540819, -0.37178513, 0.99993080, 0.01125084, 0.00114509, 0.00325751, -0.04092355, 0.93605953, -0.57388735, 87.59100342, 1211.66052246, 39.61000061, 0.00000000
1, 0.5399, 54, 0.03539953, -0.91500574, -0.42950714, -4.72897530, -2.42795014, -1.16158640, 13.90477753, -61.00099564, 42.05150604, -1.33717942, -0.13518423, -0.39668152, 0.99992520, 0.01167283, 0.00113922, 0.00347522, -0.03775810, 0.93805134, -0.57022452, 87.59100342, 1211.66052246, 39.61000061, 0.00000000
1, 0.5499, 55, 0.03491054, -0.91631490, -0.42416811, -2.62336731, -2.87060285, -1.42343199, 14.70919418, -61.08895111, 41.76602936, -1.36467052, -0.13451657, -0.42758423, 0.99992150, 0.01191300, 0.00112935, 0.00374508, -0.03726014, 0.93997324, -0.57554919, 87.59100342, 1211.66052246, 39.61000061, 0.00000000
1, 0.5599, 56, 0.03234109, -0.92138654, -0.42195570, -2.24567199, -2.34618807, -1.83544195, 13.64882374, -59.72559738, 41.53764343, -1.37717724, -0.13202375, -0.49935701, 0.99991763, 0.01202274, 0.00109966, 0.00437123, -0.03464647, 0.94540375, -0.57775319, 87.59100342, 1211.66052246, 39.61000061, 0.00000000
1, 0.5699, 57, 0.03273649, -0.92255473, -0.41897523, -3.23070598, -1.86705768, -2.22665572, 13.64882374, -59.72559738, 41.53764343, -1.41049659, -0.11981869, -0.52435172, 0.99991328, 0.01231324, 0.00098920, 0.00458834, -0.03491413, 0.94693333, -0.58072519, 87.59100342, 1211.66052246, 39.61000061, 0.00000000
1, 0.5799, 58, 0.03058265, -0.91768432, -0.41856384, -4.51814175, -1.87288892, -2.48651338, 13.68538952, -59.90151215, 41.36635590, -1.45674622, -0.10530649, -0.54997283, 0.99990731, 0.01271642, 0.00085788, 0.00481069, -0.03251923, 0.94278598, -0.58111918, 87.59100342, 1211.66052246, 39.61000061, 0.00000000
1, 0.5899, 59, 0.03303103, -0.90839398, -0.42163965, -6.09275675, -1.98532021, -2.65984225, 14.16072655, -60.25334549, 41.80408859, -1.51879799, -0.08970836, -0.57670873, 0.99989915, 0.01325739, 0.00071607, 0.00504264, -0.03470635, 0.93448192, -0.57801855, 87.59100342, 1211.66052246, 39.61000061, 0.00000000
1, 0.5999, 60, 0.03356382, -0.90316343, -0.43211913, -6.28667974, -1.94826412, -2.92214441, 14.48980618, -61.66067886, 41.67086411, -1.58282256, -0.07160920, -0.60417515, 0.99989057, 0.01381539, 0.00055202, 0.00528052, -0.03493296, 0.93036985, -0.56750971, 87.59100342, 1211.66052246, 39.61000061, 0.00000000
1, 0.6099, 61, 0.03579728, -0.90089649, -0.44057056, -5.81483316, -2.56210613, -2.93649364, 14.30698395, -60.38528061, 41.48054886, -1.64890349, -0.05485082, -0.67774147, 0.99987888, 0.01439148, 0.00039350, 0.00592065, -0.03687011, 0.92920423, -0.55902809, 87.59100342, 1211.66052246, 39.61000061, 0.00000000
1, 0.6199, 62, 0.03758711, -0.90181595, -0.43461928, -4.78752851, -2.96403432, -3.05355692, 14.30698395, -60.38528061, 41.48054886, -1.69837308, -0.04002349, -0.71560144, 0.99987066, 0.01482245, 0.00025667, 0.00624925, -0.03838112, 0.93114406, -0.56495023, 87.59100342, 1211.66052246, 39.61000061, 0.00000000
1, 0.6299, 63, 0.03563746, -0.90029752, -0.43016827, -3.56931901, -3.23321009, -2.79926872, 13.94133854, -59.98946762, 41.09990692, -1.73574328, -0.02869681, -0.75529861, 0.99986351, 0.01514795, 0.00015056, 0.00659421, -0.03620505, 0.93035436, -0.56937969, 87.59100342, 1211.66052246, 39.61000061, 0.00000000
1, 0.6399, 64, 0.03834000, -0.90180725, -0.42854962, -3.15805149, -3.31803036, -2.66168427, 13.75851536, -60.82507324, 41.30925751, -1.76902282, -0.01901034, -0.79535753, 0.99985683, 0.01543780, 0.00005873, 0.00694248, -0.03873599, 0.93246102, -0.57098031, 87.59100342, 1211.66052246, 39.61000061, 0.00000000
1, 0.6499, 65, 0.03740621, -0.90505224, -0.43645981, -3.30809426, -2.94551992, -2.42487526, 14.19729233, -59.98946762, 41.59473801, -1.80361450, -0.00986420, -0.83097076, 0.99984992, 0.01573906, -0.00002806, 0.00725198, -0.03763675, 0.93629479, -0.56305194, 87.59100342, 1211.66052246, 39.61000061, 0.00000000
1, 0.6599, 66, 0.03596280, -0.90718734, -0.43381405, -3.86740589, -2.81523824, -2.26222014, 14.38011456, -61.96853638, 41.27119446, -1.84101021, -0.00369363, -0.90789872, 0.99983960, 0.01606490, -0.00009505, 0.00792232, -0.03605844, 0.93907279, -0.56567746, 87.59100342, 1211.66052246, 39.61000061, 0.00000000
1, 0.6699, 67, 0.03263601, -0.90462482, -0.43312433, -4.82495070, -1.98163581, -2.27692127, 14.38011456, -61.96853638, 41.27119446, -1.89037395, 0.00827232, -0.93356830, 0.99983084, 0.01649474, -0.00020657, 0.00814453, -0.03257180, 0.93727636, -0.56634247, 87.59100342, 1211.66052246, 39.61000061, 0.00000000
1, 0.6799, 68, 0.02969999, -0.90149152, -0.43941069, -5.75844288, -1.47007000, -2.52698469, 14.30698395, -61.74863815, 41.36635590, -1.94891083, 0.02471008, -0.95534134, 0.99982071, 0.01700424, -0.00035738, 0.00833195, -0.02938190, 0.93511057, -0.56002396, 87.59100342, 1211.66052246, 39.61000061, 0.00000000
1, 0.6899, 69, 0.02922728, -0.89876229, -0.45074984, -5.50864506, -1.57359576, -2.37172079, 13.94133854, -60.69313812, 40.94765091, -2.00498724, 0.03926989, -0.97749764, 0.99981052, 0.01749235, -0.00049187, 0.00852287, -0.02862780, 0.93338692, -0.54865038, 87.59100342, 1211.66052246, 39.61000061, 0.00000000
1, 0.6999, 70, 0.03322195, -0.89958620, -0.45677352, -4.57730389, -1.98367798, -2.03162551, 14.38011456, -59.28580475, 41.17603302, -2.05184984, 0.04894856, -1.00226355, 0.99980146, 0.01790038, -0.00058367, 0.00873724, -0.03242775, 0.93511206, -0.54259491, 87.59100342, 1211.66052246, 39.61000061, 0.00000000
1, 0.7099, 71, 0.03276003, -0.90629357, -0.45916504, -2.11028624, -1.78245986, -1.61306465, 13.83164692, -59.32978439, 41.55667496, -2.09558988, 0.04246333, -1.06999159, 0.99978918, 0.01828219, -0.00054123, 0.00932896, -0.03188860, 0.94246501, -0.54018015, 87.59100342, 1211.66052246, 39.61000061, 0.00000000
1, 0.7199, 72, 0.03344268, -0.91096133, -0.45436040, -0.28915513, -1.41334617, -1.27688909, 13.83164692, -59.32978439, 41.55667496, -2.09926176, 0.04775150, -1.08814657, 0.99978709, 0.01831370, -0.00059057, 0.00948650, -0.03264284, 0.94757634, -0.54496878, 87.59100342, 1211.66052246, 39.61000061, 0.00000000
1, 0.7299, 73, 0.02972786, -0.91778183, -0.45251146, -0.27798620, -1.07444835, -1.00612366, 13.86821175, -61.35282516, 41.32828903, -2.10264325, 0.05209373, -1.10207939, 0.99978536, 0.01834277, -0.00063096, 0.00960734, -0.02884736, 0.95443726, -0.54681611, 87.59100342, 1211.66052246, 39.61000061, 0.00000000
1, 0.7399, 74, 0.03052749, -0.92386800, -0.44063899, -0.88924849, -0.47429970, -1.27288890, 14.12416077, -60.95701218, 41.32828903, -2.11194134, 0.06146772, -1.11152875, 0.99978316, 0.01842305, -0.00071505, 0.00968823, -0.02952051, 0.96064156, -0.55868423, 87.59100342, 1211.66052246, 39.61000061, 0.00000000
1, 0.7499, 75, 0.02943646, -0.92147267, -0.43687996, -2.40003181, 0.01131307, -1.25805664, 13.83164692, -60.25334549, 41.29022598, -2.13614035, 0.07286351, -1.11591911, 0.99977881, 0.01863318, -0.00081723, 0.00972453, -0.02823894, 0.95855498, -0.56243151, 87.59100342, 1211.66052246, 39.61000061, 0.00000000
1, 0.7599, 76, 0.02947192, -0.91593003, -0.44040900, -4.80362797, 0.13025644, -1.28335810, 13.42943573, -59.37376022, 41.25216293, -2.18032837, 0.07423612, -1.16490364, 0.99976730, 0.01901823, -0.00084109, 0.01015136, -0.02811426, 0.95368963, -0.55887693, 87.59100342, 1211.66052246, 39.61000061, 0.00000000
1, 0.7699, 77, 0.03175659, -0.90713459, -0.44515160, -5.67994690, -0.18596016, -1.25216818, 13.42943573, -59.37376022, 41.25216293, -2.23737192, 0.08475870, -1.16967654, 0.99975729, 0.01951494, -0.00093876, 0.01019078, -0.03033776, 0.94579023, -0.55409992, 87.59100342, 1211.66052246, 39.61000061, 0.00000000
1, 0.7799, 78, 0.03229641, -0.89200640, -0.45297551, -6.25272751, -0.51865721, -1.11678338, 13.90477753, -59.32978439, 41.25216293, -2.30023217, 0.09260691, -1.17659903, 0.99974573, 0.02006260, -0.00101403, 0.01024929, -0.03072968, 0.93173373, -0.54623377, 87.59100342, 1211.66052246, 39.61000061, 0.00000000
1, 0.7899, 79, 0.03822411, -0.88326681, -0.45657110, -5.56648397, -1.04504728, -1.12994993, 14.41668034, -60.47323990, 40.62410736, -2.35646200, 0.09822567, -1.18860459, 0.99973470, 0.02055255, -0.00107023, 0.01035252, -0.03654354, 0.92403436, -0.54259610, 87.59100342, 1211.66052246, 39.61000061, 0.00000000
1, 0.7999, 80, 0.04731562, -0.87973917, -0.45133895, -3.77226591, -1.25511098, -1.06954324, 13.79508114, -59.24182510, 41.00474548, -2.39485216, 0.10233030, -1.20298696, 0.99972636, 0.02088697, -0.00111213, 0.01047689, -0.04555462, 0.92129713, -0.54779559, 87.59100342, 1211.66052246, 39.61000061, 0.00000000
1, 0.8099, 81, 0.05204509, -0.87939101, -0.44768488, -2.42924738, -1.47213018, -0.79696220, 14.48980618, -61.48476028, 41.17603302, -2.44466639, 0.12534927, -1.26367033, 0.99971133, 0.02131874, -0.00132880, 0.01100153, -0.05014952, 0.92156839, -0.55142343, 87.59100342, 1211.66052246, 39.61000061, 0.00000000
1, 0.8199, 82, 0.05453369, -0.88392663, -0.45169014, -2.23221588, -1.90427339, -0.50781912, 14.48980618, -61.48476028, 41.17603302, -2.46783543, 0.12149913, -1.28203094, 0.99970531, 0.02152104, -0.00130088, 0.01116216, -0.05238051, 0.92683160, -0.54738677, 87.59100342, 1211.66052246, 39.61000061, 0.00000000
1, 0.8299, 83, 0.04996307, -0.88787889, -0.45278376, -1.94997215, -1.82084322, -0.22567582, 14.27041817, -60.20936584, 41.06184387, -2.48809218, 0.11546884, -1.29850793, 0.99969983, 0.02169817, -0.00125337, 0.01130682, -0.04790583, 0.93117189, -0.54627657, 87.59100342, 1211.66052246, 39.61000061, 0.00000000
1, 0.8399, 84, 0.04320901, -0.89276993, -0.44649273, -1.39431989, -1.76473713, -0.24377474, 14.48980618, -60.78109741, 41.11893845, -2.50278401, 0.10983643, -1.31480074, 0.99969548, 0.02182672, -0.00120878, 0.01144987, -0.04125514, 0.93634939, -0.55255532, 87.59100342, 1211.66052246, 39.61000061, 0.00000000
1, 0.8499, 85, 0.03431670, -0.89890093, -0.44484925, -1.07129776, -1.46716905, -0.44944683, 14.27041817, -59.76956940, 41.15700150, -2.51416016, 0.10736483, -1.32947361, 0.99969184, 0.02192607, -0.00119117, 0.01157823, -0.03243171, 0.94269288, -0.55418968, 87.59100342, 1211.66052246, 39.61000061, 0.00000000
1, 0.8599, 86, 0.02981046, -0.90473074, -0.44275570, -1.22648430, -1.28773797, -1.00770557, 14.52637196, -60.03344727, 40.50991440, -2.51322174, 0.08588422, -1.39463925, 0.99968541, 0.02191948, -0.00101614, 0.01215085, -0.02801116, 0.94867492, -0.55627668, 87.59100342, 1211.66052246, 39.61000061, 0.00000000
1, 0.8699, 87, 0.02923593, -0.90864223, -0.44072855, -1.06359637, -1.12865818, -1.21579909, 14.01446915, -60.78109741, 40.64313889, -2.52451587, 0.09177978, -1.40969539, 0.99968159, 0.02201724, -0.00107166, 0.01228097, -0.02767319, 0.95261896, -0.55830282, 87.59100342, 1211.66052246, 39.61000061, 0.00000000
1, 0.8799, 88, 0.03017905, -0.90768552, -0.44058830, -1.26053619, -0.92179346, -1.36905229, 14.01446915, -60.78109741, 40.64313889, -2.53772569, 0.09996781, -1.42349458, 0.99967748, 0.02213147, -0.00114718, 0.01239964, -0.02849544, 0.95186353, -0.55843395, 87.59100342, 1211.66052246, 39.61000061, 0.00000000
1, 0.8899, 89, 0.03173581, -0.90399408, -0.44125250, -2.04987550, -0.75502324, -1.45102227, 13.50256634, -59.06590652, 40.43378448, -2.55876756, 0.10963999, -1.43583858, 0.99967206, 0.02231385, -0.00123623, 0.01250523, -0.02988282, 0.94848537, -0.55775553, 87.59100342, 1211.66052246, 39.61000061, 0.00000000
1, 0.8999, 90, 0.03352391, -0.89618659, -0.44763836, -2.98350811, -0.95445800, -1.24141884, 13.57569790, -58.58213425, 40.71926498, -2.58918691, 0.11655921, -1.44863856, 0.99966472, 0.02257832, -0.00130244, 0.01261520, -0.03153031, 0.94115126, -0.55134815, 87.59100342, 1211.66052246, 39.61000061, 0.00000000
1, 0.9099, 91, 0.03263628, -0.88851362, -0.45574668, -3.30854011, -1.21972632, -0.91201341, 14.19729233, -59.46171951, 40.62410736, -2.64126921, 0.11138467, -1.50864208, 0.99964768, 0.02303258, -0.00127509, 0.01313910, -0.03060530, 0.93413556, -0.54320997, 87.59100342, 1211.66052246, 39.61000061, 0.00000000
1, 0.9199, 92, 0.03835815, -0.88308865, -0.45810679, -2.57269979, -1.47325563, -0.79654688, 13.39287472, -60.47323990, 40.87152100, -2.66770601, 0.11198354, -1.52428520, 0.99964041, 0.02326295, -0.00128652, 0.01327514, -0.03640562, 0.92947400, -0.54081494, 87.59100342, 1211.66052246, 39.61000061, 0.00000000
1, 0.9299, 93, 0.04336591, -0.87890774, -0.46152970, -1.55240512, -1.29399538, -0.77832180, 13.39287472, -60.47323990, 40.87152100, -2.68387032, 0.11319352, -1.53867638, 0.99963552, 0.02340366, -0.00130189, 0.01340026, -0.04139721, 0.92564011, -0.53737581, 87.59100342, 1211.66052246, 39.61000061, 0.00000000
1, 0.9399, 94, 0.04718322, -0.88200516, -0.46067947, -0.87639445, -1.20832980, -0.44460142, 14.30698395, -60.86905289, 40.81442642, -2.69319963, 0.11178163, -1.55108714, 0.99963212, 0.02348506, -0.00129321, 0.01350871, -0.04522838, 0.92893976, -0.53821659, 87.59100342, 1211.66052246, 39.61000061, 0.00000000
1, 0.9499, 95, 0.04882645, -0.88388932, -0.45753667, -0.45062190, -0.62089950, -0.48628923, 14.05103493, -59.94548798, 41.23313141, -2.69804430, 0.11336067, -1.55861604, 0.99963021, 0.02352706, -0.00130910, 0.01357400, -0.04686294, 0.93093681, -0.54135406, 87.59100342, 1211.66052246, 39.61000061, 0.00000000
1, 0.9599, 96, 0.04431426, -0.88736665, -0.45182642, 0.02836888, 0.19165826, -0.62887657, 13.57569790, -59.37376022, 40.83345795, -2.73490310, 0.12205303, -1.60814667, 0.99961662, 0.02384695, -0.00139960, 0.01400384, -0.04225999, 0.93460286, -0.54705518, 87.59100342, 1211.66052246, 39.61000061, 0.00000000
1, 0.9699, 97, 0.04002414, -0.89471048, -0.45414126, 0.24125259, 0.60673231, -0.72627139, 13.90477753, -59.59365463, 40.77635956, -2.73236966, 0.13125834, -1.60607386, 0.99961734, 0.02382375, -0.00147916, 0.01398388, -0.03779847, 0.94239795, -0.54471856, 87.59100342, 1211.66052246, 39.61000061, 0.00000000
1, 0.9799, 98, 0.03211497, -0.90430230, -0.45251185, 0.88676775, 0.80248338, -0.84717929, 13.90477753, -59.59365463, 40.77635956, -2.72334504, 0.14240779, -1.60307348, 0.99961942, 0.02374370, -0.00157470, 0.01395550, -0.02970746, 0.95188093, -0.54635280, 87.59100342, 1211.66052246, 39.61000061, 0.00000000
1, 0.9899, 99, 0.02924991, -0.91394448, -0.45073536, 0.96168429, 0.66811633, -0.99085993, 14.45324135, -60.34130478, 41.09990692, -2.71365047, 0.15423860, -1.60193789, 0.99962157, 0.02365770, -0.00167648, 0.01394329, -0.02663869, 0.96134508, -0.54813719, 87.59100342, 1211.66052246, 39.61000061, 0.00000000
1, 0.9999, 100, 0.02851575, -0.91676909, -0.45014828, 0.25277916, 0.25626680, -1.33133745, 14.92858315, -60.29732513, 41.00474548, -2.71126771, 0.16728444, -1.60571039, 0.99962139, 0.02363526, -0.00179078, 0.01397353, -0.02567524, 0.96407855, -0.54872799, 87.59100342, 1211.66052246, 39.61000061, 0.00000000
1, 1.0099, 101, 0.03200767, -0.91241169, -0.44669437, -0.69768041, 0.23137113, -1.31137419, 14.34354877, -61.13293076, 41.25216293, -2.69787741, 0.15882829, -1.66001272, 0.99961758, 0.02351868, -0.00172652, 0.01444918, -0.02904317, 0.95969135, -0.55218291, 87.59100342, 1211.66052246, 39.61000061, 0.00000000
1, 1.0199, 102, 0.03606913, -0.89937192, -0.44624886, -1.61708319, 0.59983778, -1.19534457, 14.52637196, -60.07742691, 41.08087540, -2.71400809, 0.17223510, -1.65931964, 0.99961418, 0.02365770, -0.00184536, 0.01444012, -0.03314800, 0.94661218, -0.55263042, 87.59100342, 1211.66052246, 39.61000061, 0.00000000
1, 1.0299, 103, 0.04025626, -0.89055181, -0.45275509, -2.19771075, 0.24053189, -0.48041114, 14.52637196, -60.07742691, 41.08087540, -2.73594785, 0.17765042, -1.65838993, 0.99960965, 0.02384841, -0.00189517, 0.01443052, -0.03718305, 0.93813962, -0.54610723, 87.59100342, 1211.66052246, 39.61000061, 0.00000000
1, 1.0399, 104, 0.04044125, -0.88573855, -0.45431849, -1.77778637, 0.47430447, 0.12088124, 14.08759975, -59.59365463, 41.25216293, -2.75349760, 0.17873029, -1.65287328, 0.99960673, 0.02400146, -0.00190565, 0.01438189, -0.03732705, 0.93367535, -0.54452699, 87.59100342, 1211.66052246, 39.61000061, 0.00000000
1, 1.0499, 105, 0.04077920, -0.88677871, -0.45573762, -0.18962552, 0.77240515, 0.49143332, 14.67262936, -58.45019913, 40.56701279, -2.75498390, 0.17780079, -1.64368773, 0.99960756, 0.02401470, -0.00189580, 0.01430193, -0.03766799, 0.93485618, -0.54310113, 87.59100342, 1211.66052246, 39.61000061, 0.00000000
1, 1.0599, 106, 0.04212023, -0.89044780, -0.45378011, 0.79286075, 1.19180918, 0.49724457, 14.27041817, -59.15386200, 40.70023346, -2.76072145, 0.17160916, -1.67978704, 0.99960184, 0.02406494, -0.00185009, 0.01461804, -0.03904793, 0.93848920, -0.54506052, 87.59100342, 1211.66052246, 39.61000061, 0.00000000
1, 1.0699, 107, 0.03966826, -0.89886600, -0.45189804, 0.89975011, 1.53857434, 0.32842463, 15.00170898, -60.42926025, 40.96668243, -2.75103164, 0.17554872, -1.66494429, 0.99960566, 0.02398015, -0.00188011, 0.01448789, -0.03663402, 0.94692695, -0.54694176, 87.59100342, 1211.66052246, 39.61000061, 0.00000000
1, 1.0799, 108, 0.03561856, -0.90524185, -0.45152646, 0.79274321, 1.85049188, 0.08921351, 15.00170898, -60.42926025, 40.96668243, -2.74233317, 0.18302612, -1.64835322, 0.99960953, 0.02390361, -0.00194078, 0.01434174, -0.03246965, 0.95314503, -0.54732054, 87.59100342, 1211.66052246, 39.61000061, 0.00000000
1, 1.0899, 109, 0.03537293, -0.90416503, -0.44647542, -0.06282592, 1.76313281, -0.22641477, 14.89201736, -60.16538239, 40.73830032, -2.74227262, 0.19294868, -1.63359928, 0.99961126, 0.02390209, -0.00202425, 0.01421097, -0.03207346, 0.95198727, -0.55237496, 87.59100342, 1211.66052246, 39.61000061, 0.00000000
1, 1.0999, 110, 0.03173172, -0.90435189, -0.44374737, -1.13882768, 1.92793894, -0.32512733, 14.41668034, -60.34130478, 41.11893845, -2.75290251, 0.20452189, -1.61735690, 0.99961084, 0.02399367, -0.00212312, 0.01406666, -0.02824221, 0.95230162, -0.55509633, 87.59100342, 1211.66052246, 39.61000061, 0.00000000
1, 1.1099, 111, 0.03398750, -0.90549058, -0.44486934, -1.67271721, 1.72046399, -0.48606044, 15.03827477, -60.12141037, 40.90958786, -2.75770831, 0.20259704, -1.65223992, 0.99960566, 0.02403520, -0.00211424, 0.01437127, -0.03034810, 0.95363885, -0.55396426, 87.59100342, 1211.66052246, 39.61000061, 0.00000000
1, 1.1199, 112, 0.03807550, -0.90284514, -0.44646719, -1.89226127, 1.71361768, -0.16912298, 15.14796638, -60.64915848, 40.64313889, -2.77592826, 0.21183072, -1.63689661, 0.99960351, 0.02419326, -0.00219383, 0.01423514, -0.03443193, 0.95116293, -0.55235821, 87.59100342, 1211.66052246, 39.61000061, 0.00000000
1, 1.1299, 113, 0.04248796, -0.90161061, -0.44721010, -1.41536772, 1.76085138, 0.32260337, 15.14796638, -60.64915848, 40.64313889, -2.78926063, 0.21688339, -1.61912930, 0.99960291, 0.02430928, -0.00223579, 0.01407883, -0.03873198, 0.95019639, -0.55160183, 87.59100342, 1211.66052246, 39.61000061, 0.00000000
1, 1.1399, 114, 0.04411020, -0.89658833, -0.44712561, -0.95768213, 2.37857032, 0.54512948, 14.38011456, -59.15386200, 40.58604431, -2.79772043, 0.22270231, -1.59504080, 0.99960393, 0.02438283, -0.00228247, 0.01386729, -0.04026214, 0.94534552, -0.55167758, 87.59100342, 1211.66052246, 39.61000061, 0.00000000
1, 1.1499, 115, 0.04731714, -0.89720416, -0.45552558, -0.56698656, 2.63723803, 0.65484190, 14.38011456, -58.88999176, 40.45281982, -2.80214787, 0.22870354, -1.56832397, 0.99960607, 0.02442126, -0.00232966, 0.01363286, -0.04335963, 0.94607186, -0.54327190, 87.59100342, 1211.66052246, 39.61000061, 0.00000000
1, 1.1599, 116, 0.04743698, -0.89702147, -0.45539990, 0.09547891, 2.53723407, 0.79133898, 14.48980618, -59.90151215, 40.73830032, -2.80166030, 0.23971352, -1.58979487, 0.99960345, 0.02441524, -0.00243022, 0.01381782, -0.04336993, 0.94590104, -0.54339647, 87.59100342, 1211.66052246, 39.61000061, 0.00000000
1, 1.1699, 117, 0.04790369, -0.89904499, -0.44830176, 0.38158661, 2.57321739, 0.82637662, 14.78232574, -60.34130478, 40.92861938, -2.79660392, 0.24386847, -1.56326675, 0.99960768, 0.02437120, -0.00246021, 0.01358563, -0.04367957, 0.94786847, -0.55049670, 87.59100342, 1211.66052246, 39.61000061, 0.00000000
1, 1.1799, 118, 0.04531237, -0.90013552, -0.44726101, 0.11349184, 2.79753184, 0.62097317, 14.63606358, -58.75804901, 40.87152100, -2.79416800, 0.25087619, -1.53555715, 0.99961132, 0.02434972, -0.00251516, 0.01334247, -0.04098423, 0.94889086, -0.55154037, 87.59100342, 1211.66052246, 39.61000061, 0.00000000
1, 1.1899, 119, 0.04057832, -0.90545619, -0.44479710, -0.35138154, 2.96884036, 0.41505748, 14.63606358, -58.75804901, 40.87152100, -2.79632068, 0.26050314, -1.50703835, 0.99961406, 0.02436801, -0.00259333, 0.01309159, -0.03609701, 0.95423138, -0.55400264, 87.59100342, 1211.66052246, 39.61000061, 0.00000000
1, 1.1999, 120, 0.03739490, -0.90527159, -0.44199982, -0.38244322, 2.81819606, 0.16588911, 13.86821175, -58.01040649, 40.87152100, -2.79890442, 0.27167585, -1.48097777, 0.99961621, 0.02438987, -0.00268554, 0.01286182, -0.03272825, 0.95407885, -0.55679750, 87.59100342, 1211.66052246, 39.61000061, 0.00000000
1, 1.2099, 121, 0.03675698, -0.90264887, -0.44463408, -0.75382227, 2.59598041, -0.06616434, 15.07484055, -59.32978439, 40.94765091, -2.79367518, 0.27201891, -1.50703251, 0.99961436, 0.02434360, -0.00269348, 0.01308915, -0.03193279, 0.95149040, -0.55416083, 87.59100342, 1211.66052246, 39.61000061, 0.00000000
1, 1.2199, 122, 0.04068051, -0.89923459, -0.44287449, -0.77128488, 2.54438138, -0.06719571, 14.34354877, -60.69313812, 41.34732437, -2.80030179, 0.28405079, -1.48429418, 0.99961531, 0.02440058, -0.00279435, 0.01288807, -0.03580134, 0.94805312, -0.55592126, 87.59100342, 1211.66052246, 39.61000061, 0.00000000
1, 1.2299, 123, 0.04388288, -0.89950413, -0.44410297, -0.25537604, 2.59562135, 0.19597752, 14.38011456, -60.95701218, 41.13796997, -2.80169630, 0.29395974, -1.46013737, 0.99961758, 0.02441223, -0.00287580, 0.01267520, -0.03881347, 0.94837606, -0.55468929, 87.59100342, 1211.66052246, 39.61000061, 0.00000000
1, 1.2399, 124, 0.04892002, -0.89972943, -0.44644949, -0.02617812, 2.48880243, 0.54459667, 14.38011456, -60.95701218, 41.13796997, -2.80077147, 0.30026451, -1.43545890, 0.99962032, 0.02440409, -0.00292544, 0.01245859, -0.04371062, 0.94860458, -0.55234182, 87.59100342, 1211.66052246, 39.61000061, 0.00000000
1, 1.2499, 125, 0.05268056, -0.89624375, -0.44749108, 0.30986536, 2.32993698, 0.97968614, 14.74575996, -59.98946762, 40.71926498, -2.79648042, 0.30196345, -1.41040087, 0.99962389, 0.02436711, -0.00293447, 0.01223975, -0.04741945, 0.94506264, -0.55130267, 87.59100342, 1211.66052246, 39.61000061, 0.00000000
1, 1.2599, 126, 0.05222950, -0.89738727, -0.44691959, 0.39498037, 2.53332162, 1.17706311, 14.34354877, -59.32978439, 41.25216293, -2.78833103, 0.31351086, -1.43056917, 0.99962324, 0.02429424, -0.00303860, 0.01241344, -0.04690904, 0.94610643, -0.55187869, 87.59100342, 1211.66052246, 39.61000061, 0.00000000
1, 1.2699, 127, 0.05025148, -0.89835846, -0.44907120, 0.37256598, 3.18670559, 1.08539832, 14.48980618, -61.44078064, 41.29022598, -2.78300118, 0.31810385, -1.39741004, 0.99962777, 0.02424813, -0.00307108, 0.01212335, -0.04473092, 0.94694614, -0.54973245, 87.59100342, 1211.66052246, 39.61000061, 0.00000000
1, 1.2799, 128, 0.04618077, -0.89781809, -0.44449651, 0.35486087, 3.13482022, 1.10194004, 14.41668034, -58.71406937, 41.23313141, -2.77787137, 0.32230747, -1.36462760, 0.99963224, 0.02420382, -0.00310028, 0.01183662, -0.04058930, 0.94630516, -0.55431169, 87.59100342, 1211.66052246, 39.61000061, 0.00000000
1, 1.2899, 129, 0.04322930, -0.89835948, -0.44579414, -0.16016938, 3.31000471, 0.63258463, 14.41668034, -58.71406937, 41.23313141, -2.77789879, 0.33150816, -1.33218038, 0.99963534, 0.02420400, -0.00317369, 0.01155162, -0.03751263, 0.94681609, -0.55301476, 87.59100342, 1211.66052246, 39.61000061, 0.00000000
1, 1.2999, 130, 0.04108950, -0.90305966, -0.44748193, -0.12193497, 3.39977479, 0.40583697, 14.56293774, -59.72559738, 40.94765091, -2.77754045, 0.34313291, -1.29994464, 0.99963826, 0.02420060, -0.00326825, 0.01126796, -0.03517562, 0.95152307, -0.55132556, 87.59100342, 1211.66052246, 39.61000061, 0.00000000
1, 1.3099, 131, 0.04393919, -0.90015602, -0.45315292, -0.13606778, 3.14406252, 0.29503435, 14.27041817, -61.22089005, 41.65183640, -2.77921009, 0.35630625, -1.31793249, 0.99963593, 0.02421333, -0.00338714, 0.01142204, -0.03781608, 0.94861877, -0.54565328, 87.59100342, 1211.66052246, 39.61000061, 0.00000000
1, 1.3199, 132, 0.04844899, -0.90051228, -0.45147550, -0.43683568, 3.23316550, -0.05373825, 14.45324135, -59.37376022, 41.32828903, -2.78214717, 0.37130019, -1.28910112, 0.99963772, 0.02423832, -0.00351213, 0.01116726, -0.04207401, 0.94902354, -0.54732680, 87.59100342, 1211.66052246, 39.61000061, 0.00000000
1, 1.3299, 133, 0.05290843, -0.90423036, -0.46311468, 0.30299890, 3.34844089, -0.45787960, 13.94133854, -59.63763428, 41.13796997, -2.77771640, 0.39041159, -1.26139235, 0.99964082, 0.02419867, -0.00367256, 0.01092163, -0.04622728, 0.95274723, -0.53568530, 87.59100342, 1211.66052246, 39.61000061, 0.00000000
1, 1.3399, 134, 0.05624581, -0.90875989, -0.46867979, 2.08285356, 3.17712712, -0.67786705, 13.94133854, -59.63763428, 41.13796997, -2.75562358, 0.41067192, -1.23693526, 0.99964720, 0.02400480, -0.00384208, 0.01070473, -0.04920771, 0.95700824, -0.53013074, 87.59100342, 1211.66052246, 39.61000061, 0.00000000
1, 1.3499, 135, 0.05706429, -0.91198581, -0.46432486, 3.57350135, 2.87948060, -0.65352935, 14.85545158, -59.46171951, 41.59473801, -2.71876073, 0.42934799, -1.21565700, 0.99965632, 0.02368220, -0.00399716, 0.01051647, -0.04968956, 0.95967299, -0.53451020, 87.59100342, 1211.66052246, 39.61000061, 0.00000000
1, 1.3599, 136, 0.05206012, -0.91392177, -0.45820892, 3.97270012, 2.42002392, -0.69956690, 14.48980618, -60.16538239, 41.76602936, -2.67766094, 0.44855389, -1.24428689, 0.99966145, 0.02332082, -0.00416676, 0.01076373, -0.04437472, 0.96090955, -0.54065692, 87.59100342, 1211.66052246, 39.61000061, 0.00000000
1, 1.3699, 137, 0.05052386, -0.92294645, -0.45370591, 3.17478943, 2.28564095, -1.26245654, 14.63606358, -60.56120300, 41.36635590, -2.64517426, 0.46999791, -1.23084271, 0.99966860, 0.02303588, -0.00434808, 0.01064330, -0.04246540, 0.96928835, -0.54518718, 87.59100342, 1211.66052246, 39.61000061, 0.00000000
1, 1.3799, 138, 0.04936572, -0.91605914, -0.44674629, 1.90678334, 1.90029681, -1.38972604, 13.75851536, -59.63763428, 41.17603302, -2.62554359, 0.49087766, -1.22084796, 0.99967271, 0.02286304, -0.00452641, 0.01055267, -0.04092308, 0.96198225, -0.55216300, 87.59100342, 1211.66052246, 39.61000061, 0.00000000
1, 1.3899, 139, 0.05283726, -0.89528149, -0.43859041, 0.72649372, 0.73317921, -0.88330263, 13.75851536, -59.63763428, 41.17603302, -2.61813402, 0.50203651, -1.21853495, 0.99967402, 0.02279745, -0.00462261, 0.01053056, -0.04414219, 0.94098818, -0.56032670, 87.59100342, 1211.66052246, 39.61000061, 0.00000000
1, 1.3999, 140, 0.05371976, -0.87815201, -0.43947330, 0.09384486, 0.87833190, -0.61464047, 13.94133854, -59.90151215, 41.23313141, -2.61691117, 0.51145583, -1.21346354, 0.99967438, 0.02278611, -0.00470367, 0.01048449, -0.04484962, 0.92381549, -0.55944425, 87.59100342, 1211.66052246, 39.61000061, 0.00000000
1, 1.4099, 141, 0.05366224, -0.86782575, -0.44093832, 0.30637228, 0.92889947, -0.45602292, 14.70919418, -58.71406937, 41.70893478, -2.66935182, 0.54093391, -1.25248301, 0.99965912, 0.02323914, -0.00497353, 0.01081672, -0.04454821, 0.91369092, -0.55796766, 87.59100342, 1211.66052246, 39.61000061, 0.00000000
1, 1.4199, 142, 0.05517854, -0.86499310, -0.45708564, 1.06552744, 0.05772451, -0.33603469, 15.07484055, -59.98946762, 41.46151352, -2.65875220, 0.54417765, -1.25391674, 0.99966091, 0.02314630, -0.00500112, 0.01082903, -0.04569647, 0.91146743, -0.54178888, 87.59100342, 1211.66052246, 39.61000061, 0.00000000
1, 1.4299, 143, 0.05397755, -0.87064731, -0.46913901, 3.38884640, -0.55362165, -0.67240608, 14.74575996, -59.50569916, 41.61376953, -2.62531304, 0.54766029, -1.26328897, 0.99966663, 0.02285384, -0.00503021, 0.01091155, -0.04444615, 0.91670704, -0.52975416, 87.59100342, 1211.66052246, 39.61000061, 0.00000000
1, 1.4399, 144, 0.05249744, -0.88520366, -0.47553632, 7.17448044, -1.15926325, -1.71626437, 14.74575996, -59.50569916, 41.61376953, -2.55457711, 0.55772066, -1.28434515, 0.99967819, 0.02223484, -0.00511533, 0.01109639, -0.04284455, 0.93028659, -0.52340025, 87.59100342, 1211.66052246, 39.61000061, 0.00000000
1, 1.4499, 145, 0.04073025, -0.90240276, -0.46468070, 9.67351341, -1.16293836, -3.46424079, 14.63606358, -60.07742691, 41.61376953, -2.45927238, 0.58340865, -1.31422007, 0.99969226, 0.02139948, -0.00533578, 0.01135644, -0.03073841, 0.94594646, -0.53432071, 87.59100342, 1211.66052246, 39.61000061, 0.00000000
1, 1.4599, 146, 0.03825659, -0.91875935, -0.46008667, 9.25244904, -1.70642078, -5.07400417, 14.41668034, -60.78109741, 41.68989944, -2.37163997, 0.61919069, -1.39715183, 0.99969834, 0.02062727, -0.00565418, 0.01207754, -0.02767988, 0.96067554, -0.53897834, 87.59100342, 1211.66052246, 39.61000061, 0.00000000
1, 1.4699, 147, 0.04321652, -0.92935508, -0.45232403, 6.69994068, -3.33871341, -6.17278814, 14.16072655, -60.38528061, 41.91828537, -2.30771756, 0.65970802, -1.45716214, 0.99970138, 0.02006211, -0.00601143, 0.01259708, -0.03196883, 0.97000843, -0.54678589, 87.59100342, 1211.66052246, 39.61000061, 0.00000000
1, 1.4799, 148, 0.05878229, -0.93096477, -0.44191965, 4.00084591, -4.11267281, -6.30384874, 14.45324135, -59.46171951, 41.78505707, -2.27120399, 0.69808882, -1.52350104, 0.99969834, 0.01973560, -0.00635368, 0.01317108, -0.04684395, 0.97079396, -0.55721551, 87.59100342, 1211.66052246, 39.61000061, 0.00000000
1, 1.4899, 149, 0.06706063, -0.91614681, -0.44206148, 1.86075902, -4.41417456, -5.67081928, 13.97790337, -58.67009354, 41.91828537, -2.25609922, 0.72953099, -1.58884776, 0.99969161, 0.01959636, -0.00663742, 0.01373658, -0.05452077, 0.95557779, -0.55708218, 87.59100342, 1211.66052246, 39.61000061, 0.00000000
1, 1.4999, 150, 0.07070477, -0.89738309, -0.43954873, 0.58181256, -5.15919447, -4.78607559, 13.97790337, -58.67009354, 41.91828537, -2.25397635, 0.74976861, -1.65643644, 0.99968261, 0.01957135, -0.00682526, 0.01432285, -0.05773919, 0.93671316, -0.55959344, 87.59100342, 1211.66052246, 39.61000061, 0.00000000
1, 1.5099, 151, 0.06894526, -0.88538730, -0.44412798, 0.26630548, -5.17419338, -4.01198006, 14.38011456, -60.25334549, 41.82312393, -2.26430583, 0.77670753, -1.76433158, 0.99966544, 0.01965137, -0.00708007, 0.01525882, -0.05565501, 0.92476726, -0.55500793, 87.59100342, 1211.66052246, 39.61000061, 0.00000000
1, 1.5199, 152, 0.06331658, -0.87258899, -0.43920553, 0.53270775, -5.64323235, -3.53046346, 15.36735439, -58.88999176, 41.59473801, -2.26267076, 0.78352946, -1.83071375, 0.99965632, 0.01963205, -0.00715074, 0.01583683, -0.04967083, 0.91208237, -0.55992115, 87.59100342, 1211.66052246, 39.61000061, 0.00000000
1, 1.5299, 153, 0.05632906, -0.86056888, -0.44045720, 0.59107667, -6.52161312, -3.30301285, 14.70919418, -58.67009354, 41.23313141, -2.26085281, 0.78445315, -1.90399826, 0.99964625, 0.01961148, -0.00717109, 0.01647609, -0.04263601, 0.90001893, -0.55867052, 87.59100342, 1211.66052246, 39.61000061, 0.00000000
1, 1.5399, 154, 0.05601152, -0.85501879, -0.43888244, 0.94116223, -8.03354168, -3.01946092, 14.12416077, -58.45019913, 41.15700150, -2.25623655, 0.77616280, -1.98975241, 0.99963486, 0.01956710, -0.00711275, 0.01722589, -0.04240046, 0.89442050, -0.56024837, 87.59100342, 1211.66052246, 39.61000061, 0.00000000
1, 1.5499, 155, 0.05902631, -0.85267496, -0.43381745, 1.63111854, -8.83294487, -3.12627029, 14.12416077, -58.45019913, 41.15700150, -2.24514508, 0.76531368, -2.08344030, 0.99962300, 0.01946625, -0.00703236, 0.01804572, -0.04560000, 0.89191997, -0.56532198, 87.59100342, 1211.66052246, 39.61000061, 0.00000000
1, 1.5599, 156, 0.05329949, -0.85858488, -0.43361470, 2.37647057, -9.16192055, -3.64523816, 14.45324135, -60.07742691, 41.13796997, -2.23231006, 0.76061028, -2.22428703, 0.99960244, 0.01934644, -0.00701309, 0.01927596, -0.04001565, 0.89759409, -0.56553578, 87.59100342, 1211.66052246, 39.61000061, 0.00000000
1, 1.5699, 157, 0.05193606, -0.87435031, -0.44057319, 3.51548719, -9.55813313, -4.06135416, 14.92858315, -59.54967499, 41.48054886, -2.20295596, 0.75499505, -2.32939816, 0.99958956, 0.01908494, -0.00697668, 0.02019560, -0.03872318, 0.91299164, -0.55859256, 87.59100342, 1211.66052246, 39.61000061, 0.00000000
1, 1.5799, 158, 0.05492257, -0.89774871, -0.44267753, 4.95645237, -10.14607906, -4.14843750, 14.59950256, -58.53815460, 40.83345795, -2.15953159, 0.74761754, -2.44076729, 0.99957699, 0.01870074, -0.00692285, 0.02117094, -0.04182268, 0.93573332, -0.55651498, 87.59100342, 1211.66052246, 39.61000061, 0.00000000
1, 1.5899, 159, 0.06001430, -0.92530292, -0.44808084, 6.53557873, -10.34039116, -4.10461950, 14.27041817, -58.45019913, 40.96668243, -2.10040474, 0.73906612, -2.55436754, 0.99956554, 0.01817979, -0.00685535, 0.02216682, -0.04706426, 0.96235836, -0.55114841, 87.59100342, 1211.66052246, 39.61000061, 0.00000000
1, 1.5999, 160, 0.05562817, -0.95776343, -0.45076141, 7.78641367, -9.07008171, -4.59151125, 14.27041817, -58.45019913, 40.96668243, -2.02825499, 0.74056262, -2.65922952, 0.99955601, 0.01754387, -0.00687051, 0.02308560, -0.04273007, 0.99364364, -0.54851139, 87.59100342, 1211.66052246, 39.61000061, 0.00000000
1, 1.6099, 161, 0.04288495, -0.97897762, -0.44142213, 9.01745415, -7.29932880, -5.26118279, 14.56293774, -60.38528061, 40.92861938, -1.93521798, 0.75235075, -2.79222703, 0.99954182, 0.01672184, -0.00697400, 0.02424952, -0.02983764, 1.01340294, -0.55789983, 87.59100342, 1211.66052246, 39.61000061, 0.00000000
1, 1.6199, 162, 0.02181694, -0.98577744, -0.42973208, 6.95417213, -5.30572844, -6.44343805, 14.41668034, -57.65857315, 41.25216293, -1.86994445, 0.78720582, -2.87089944, 0.99953234, 0.01614004, -0.00727530, 0.02493471, -0.00833143, 1.01876163, -0.56963271, 87.59100342, 1211.66052246, 39.61000061, 0.00000000
1, 1.6299, 163, 0.01313496, -0.97806835, -0.42389488, 0.35616460, -4.31629848, -7.14073610, 15.14796638, -59.68161774, 41.46151352, -1.87027252, 0.83277595, -2.94089365, 0.99951428, 0.01612821, -0.00768271, 0.02553865, 0.00110107, 1.01061630, -0.57547390, 87.59100342, 1211.66052246, 39.61000061, 0.00000000
1, 1.6399, 164, 0.01727305, -0.94943452, -0.43225959, -4.65228939, -5.03826237, -6.29683065, 15.03827477, -59.24182510, 41.63280487, -1.92083490, 0.86764616, -3.01160145, 0.99948901, 0.01655645, -0.00800834, 0.02614683, -0.00233539, 0.98256409, -0.56707978, 87.59100342, 1211.66052246, 39.61000061, 0.00000000
1, 1.6499, 165, 0.03183395, -0.92230988, -0.42975226, -6.91343784, -4.74971771, -5.07094240, 15.03827477, -59.24182510, 41.63280487, -1.99356723, 0.89269030, -3.07347989, 0.99946243, 0.01718060, -0.00825265, 0.02667760, -0.01642196, 0.95660627, -0.56954050, 87.59100342, 1211.66052246, 39.61000061, 0.00000000
1, 1.6599, 166, 0.03731903, -0.89093816, -0.43054435, -7.53175592, -2.91332340, -4.32731009, 15.25766277, -58.84601212, 41.08087540, -2.07445025, 0.91496968, -3.15912485, 0.99942845, 0.01787448, -0.00847916, 0.02741519, -0.02146880, 0.92657948, -0.56869447, 87.59100342, 1211.66052246, 39.61000061, 0.00000000
1, 1.6699, 167, 0.04540220, -0.87042379, -0.43649343, -7.31893396, -1.89522278, -3.51553297, 15.22109699, -58.14234161, 41.23313141, -2.14937901, 0.93838441, -3.18845391, 0.99940789, 0.01852009, -0.00870603, 0.02766156, -0.02917444, 0.90743941, -0.56268942, 87.59100342, 1211.66052246, 39.61000061, 0.00000000
1, 1.6799, 168, 0.05025528, -0.85844189, -0.43983138, -5.90226078, -1.35026634, -2.57676101, 15.00170898, -57.30673599, 41.29022598, -2.20966721, 0.95569211, -3.20939088, 0.99939173, 0.01904005, -0.00887501, 0.02783662, -0.03368213, 0.89662689, -0.55930185, 87.59100342, 1211.66052246, 39.61000061, 0.00000000
1, 1.6899, 169, 0.05147069, -0.84946990, -0.43926150, -4.05186844, -0.90198457, -1.81713092, 14.78232574, -57.87847137, 40.96668243, -2.25105906, 0.96810549, -3.22374606, 0.99938047, 0.01939686, -0.00899575, 0.02795646, -0.03464703, 0.88848829, -0.55983537, 87.59100342, 1211.66052246, 39.61000061, 0.00000000
1, 1.6999, 170, 0.05445150, -0.84406132, -0.44315928, -2.57680488, -0.64591092, -1.02523685, 14.78232574, -57.87847137, 40.96668243, -2.27738166, 0.97451478, -3.23296905, 0.99937326, 0.01962411, -0.00905965, 0.02803370, -0.03747419, 0.88363826, -0.55591297, 87.59100342, 1211.66052246, 39.61000061, 0.00000000
1, 1.7099, 171, 0.06159842, -0.84562588, -0.44364625, -1.13338554, -0.85324323, -0.24298839, 14.81888676, -58.67009354, 41.25216293, -2.35362101, 0.99991304, -3.28856206, 0.99934459, 0.02027820, -0.00930963, 0.02850789, -0.04447814, 0.88579303, -0.55539989, 87.59100342, 1211.66052246, 39.61000061, 0.00000000
1, 1.7199, 172, 0.07496696, -0.84960568, -0.43977502, 0.97189099, -1.03993678, 0.64313847, 15.22109699, -58.09836197, 41.30925751, -2.34431648, 0.98952901, -3.29545045, 0.99934524, 0.02019912, -0.00921797, 0.02857060, -0.05761977, 0.89059234, -0.55923408, 87.59100342, 1211.66052246, 39.61000061, 0.00000000
1, 1.7299, 173, 0.08608831, -0.85808992, -0.43260688, 2.35132027, -0.77429104, 1.85740566, 14.45324135, -57.39469528, 41.08087540, -2.32081461, 0.96940321, -3.29520345, 0.99935079, 0.01999926, -0.00903656, 0.02857393, -0.06901935, 0.89873987, -0.56642079, 87.59100342, 1211.66052246, 39.61000061, 0.00000000
1, 1.7399, 174, 0.09292391, -0.86978352, -0.42501622, 2.41425967, -0.42373550, 3.55210042, 14.96514320, -57.70254898, 41.02378082, -2.29606938, 0.93561405, -3.28435349, 0.99936002, 0.01979281, -0.00873384, 0.02848724, -0.07636292, 0.91000056, -0.57403749, 87.59100342, 1211.66052246, 39.61000061, 0.00000000
1, 1.7499, 175, 0.09221241, -0.87498212, -0.42269212, 2.04525757, 0.28565776, 5.13261318, 14.59950256, -57.30673599, 40.73830032, -2.27426577, 0.89076543, -3.26003551, 0.99937278, 0.01961571, -0.00833313, 0.02828467, -0.07635981, 0.91479540, -0.57638925, 87.59100342, 1211.66052246, 39.61000061, 0.00000000
1, 1.7599, 176, 0.08579221, -0.88383782, -0.43374851, 2.02221274, 1.55502295, 7.26876783, 14.59950256, -57.30673599, 40.73830032, -2.25230956, 0.85057014, -3.26066661, 0.99937874, 0.01943420, -0.00797727, 0.02829873, -0.07080097, 0.92328846, -0.56536055, 87.59100342, 1211.66052246, 39.61000061, 0.00000000
1, 1.7699, 177, 0.07943583, -0.91860443, -0.43702096, 5.91452456, 3.53863049, 8.51146412, 14.34354877, -59.24182510, 41.55667496, -2.18945503, 0.78960043, -3.19399738, 0.99940914, 0.01890556, -0.00741902, 0.02773193, -0.06526009, 0.95729923, -0.56212950, 87.59100342, 1211.66052246, 39.61000061, 0.00000000
1, 1.7799, 178, 0.05975751, -0.95929599, -0.41672817, 11.02591038, 5.15376949, 8.72313976, 14.81888676, -60.03344727, 41.51861191, -2.07475376, 0.73362285, -3.11414409, 0.99944955, 0.01792366, -0.00689055, 0.02705180, -0.04660197, 0.99628794, -0.58250058, 87.59100342, 1211.66052246, 39.61000061, 0.00000000
1, 1.7899, 179, 0.03749217, -0.98525375, -0.40340394, 10.33559990, 6.09516335, 7.47940636, 15.00170898, -60.25334549, 41.40441895, -1.96682262, 0.69279528, -3.03107476, 0.99948752, 0.01699672, -0.00649665, 0.02633992, -0.02515483, 1.02022481, -0.59590811, 87.59100342, 1211.66052246, 39.61000061, 0.00000000
1, 1.7999, 180, 0.02463151, -1.00309467, -0.39742634, 4.88640118, 6.47456408, 5.79896164, 14.92858315, -58.88999176, 41.42345047, -1.91353428, 0.66871333, -2.94967294, 0.99951488, 0.01654197, -0.00626261, 0.02563646, -0.01282206, 1.03674090, -0.60193765, 87.59100342, 1211.66052246, 39.61000061, 0.00000000
1, 1.8099, 181, 0.01954920, -0.99851453, -0.38692620, -1.30837023, 5.93809891, 4.15427732, 14.92858315, -58.88999176, 41.42345047, -1.88846004, 0.64665538, -2.92485619, 0.99952501, 0.01632954, -0.00606106, 0.02542457, -0.00806154, 1.03177023, -0.61245465, 87.59100342, 1211.66052246, 39.61000061, 0.00000000
1, 1.8199, 182, 0.02672669, -0.97527903, -0.38240442, -6.55346537, 4.73210812, 2.98480368, 14.56293774, -58.62611389, 41.38538742, -1.95093536, 0.64045954, -2.86654210, 0.99952912, 0.01687893, -0.00601229, 0.02491355, -0.01551641, 1.00885332, -0.61696887, 87.59100342, 1211.66052246, 39.61000061, 0.00000000
1, 1.8299, 183, 0.04085718, -0.94608903, -0.38770220, -10.22815228, 3.61623812, 2.30461216, 14.41668034, -58.27427673, 41.15700150, -2.05081892, 0.63565308, -2.81966376, 0.99952424, 0.01775366, -0.00598482, 0.02450016, -0.02972890, 0.98117328, -0.61162013, 87.59100342, 1211.66052246, 39.61000061, 0.00000000
1, 1.8399, 184, 0.05693951, -0.91853893, -0.39748263, -12.91860390, 2.05497050, 2.05150270, 14.23385715, -57.83449173, 40.90958786, -2.17839408, 0.62640643, -2.78675771, 0.99951136, 0.01887012, -0.00592602, 0.02420801, -0.04593887, 0.95569313, -0.60176611, 87.59100342, 1211.66052246, 39.61000061, 0.00000000
1, 1.8499, 185, 0.07042100, -0.89596748, -0.40517333, -13.28525257, 0.93679893, 2.04669452, 14.85545158, -59.59365463, 40.96668243, -2.31016064, 0.61237323, -2.76372766, 0.99949443, 0.02002358, -0.00582743, 0.02400279, -0.05963409, 0.93542290, -0.59398961, 87.59100342, 1211.66052246, 39.61000061, 0.00000000
1, 1.8599, 186, 0.08584988, -0.87054640, -0.41786841, -11.63500977, 0.08350685, 2.55105519, 14.85545158, -59.59365463, 40.96668243, -2.42586184, 0.61225027, -2.78987122, 0.99946821, 0.02103144, -0.00585539, 0.02422494, -0.07529333, 0.91214901, -0.58120990, 87.59100342, 1211.66052246, 39.61000061, 0.00000000
1, 1.8699, 187, 0.09786937, -0.85120517, -0.43689024, -8.66694450, -0.70079267, 3.66807461, 15.07484055, -59.24182510, 41.25216293, -2.51195335, 0.57642859, -2.77621555, 0.99945641, 0.02179063, -0.00555856, 0.02410832, -0.08755547, 0.89451265, -0.56211817, 87.59100342, 1211.66052246, 39.61000061, 0.00000000
1, 1.8799, 188, 0.10730959, -0.84837157, -0.44953573, -4.48017788, -1.21622789, 4.66396904, 14.30698395, -58.53815460, 41.46151352, -2.55628252, 0.52932072, -2.76446819, 0.99945211, 0.02218779, -0.00515475, 0.02401292, -0.09775431, 0.89275539, -0.54943305, 87.59100342, 1211.66052246, 39.61000061, 0.00000000
1, 1.8899, 189, 0.09832782, -0.87655759, -0.45106664, 1.73211372, -0.20828748, 4.75404310, 14.16072655, -58.75804901, 41.11893845, -2.53806663, 0.48579541, -2.74592066, 0.99946100, 0.02203888, -0.00476774, 0.02386042, -0.08958261, 0.92104053, -0.54790521, 87.59100342, 1211.66052246, 39.61000061, 0.00000000
1, 1.8999, 190, 0.06113818, -0.91096979, -0.43941218, 5.67757368, 1.73038661, 3.49951148, 13.79508114, -58.75804901, 40.81442642, -2.47983456, 0.46203011, -2.71728611, 0.99947870, 0.02153711, -0.00454295, 0.02361760, -0.05294334, 0.95464051, -0.55960017, 87.59100342, 1211.66052246, 39.61000061, 0.00000000
1, 1.9099, 191, 0.03873796, -0.93440324, -0.42582521, 5.53768873, 3.29755330, 0.96645433, 13.79508114, -58.75804901, 40.81442642, -2.40008664, 0.45947263, -2.73513651, 0.99948990, 0.02084136, -0.00450745, 0.02377692, -0.03067145, 0.97692728, -0.57323760, 87.59100342, 1211.66052246, 39.61000061, 0.00000000
1, 1.9199, 192, 0.02872985, -0.94331610, -0.41882935, 3.11479259, 2.34723902, -0.85667682, 13.24661255, -57.83449173, 40.92861938, -2.36807442, 0.47748801, -2.71921206, 0.99949843, 0.02055902, -0.00465509, 0.02363602, -0.02051972, 0.98480672, -0.58027577, 87.59100342, 1211.66052246, 39.61000061, 0.00000000
1, 1.9299, 193, 0.02981936, -0.94070441, -0.41713724, 0.71521229, 0.81024611, -1.40899694, 14.34354877, -60.20936584, 41.30925751, -2.36085486, 0.49369127, -2.71847820, 0.99949926, 0.02049272, -0.00479480, 0.02362698, -0.02129918, 0.98190904, -0.58197713, 87.59100342, 1211.66052246, 39.61000061, 0.00000000
1, 1.9399, 194, 0.03412399, -0.93420714, -0.41132072, -1.99433100, 0.21465111, -0.90345699, 14.70919418, -59.50569916, 41.48054886, -2.38085580, 0.50278139, -2.71970034, 0.99949521, 0.02066523, -0.00487843, 0.02363515, -0.02539755, 0.97557092, -0.58778536, 87.59100342, 1211.66052246, 39.61000061, 0.00000000
1, 1.9499, 195, 0.04224355, -0.92507309, -0.41864327, -4.82276964, 0.15965039, 0.07084826, 14.56293774, -59.32978439, 41.86118317, -2.42892933, 0.50294065, -2.71592069, 0.99948716, 0.02108467, -0.00488903, 0.02360010, -0.03345253, 0.96710527, -0.58043426, 87.59100342, 1211.66052246, 39.61000061, 0.00000000
1, 1.9599, 196, 0.04363859, -0.92067999, -0.42342719, -6.02423668, 0.26781532, 1.28970182, 14.56293774, -59.32978439, 41.86118317, -2.46840668, 0.49110287, -2.75367236, 0.99947238, 0.02142987, -0.00480098, 0.02392992, -0.03496306, 0.96361220, -0.57561314, 87.59100342, 1211.66052246, 39.61000061, 0.00000000
1, 1.9699, 197, 0.04295184, -0.91017252, -0.43129763, -6.40142727, 0.60715717, 2.40542364, 14.05103493, -58.31825638, 41.34732437, -2.53155112, 0.47237131, -2.73486209, 0.99946499, 0.02198532, -0.00464718, 0.02376684, -0.03457987, 0.95392704, -0.56770951, 87.59100342, 1211.66052246, 39.61000061, 0.00000000
1, 1.9799, 198, 0.04500985, -0.89728284, -0.43881333, -5.98024178, 0.21827200, 3.31003141, 14.01446915, -58.23030090, 40.94765091, -2.59049487, 0.44381633, -2.71565747, 0.99945843, 0.02250613, -0.00440658, 0.02360260, -0.03706729, 0.94210553, -0.56015003, 87.59100342, 1211.66052246, 39.61000061, 0.00000000
1, 1.9899, 199, 0.05002088, -0.88879102, -0.44697440, -4.33900356, 0.03049950, 4.03935099, 14.01446915, -59.15386200, 40.77635956, -2.63298917, 0.40788823, -2.69555354, 0.99945503, 0.02288493, -0.00409796, 0.02343285, -0.04265974, 0.93447912, -0.55195421, 87.59100342, 1211.66052246, 39.61000061, 0.00000000
1, 1.9999, 200, 0.04959192, -0.88929647, -0.45018265, -1.77991319, 0.72072190, 3.97571802, 14.89201736, -60.07742691, 41.34732437, -2.64964509, 0.37556294, -2.67062855, 0.99945766, 0.02303769, -0.00381442, 0.02322140, -0.04284049, 0.93544948, -0.54872894, 87.59100342, 1211.66052246, 39.61000061, 0.00000000
1, 2.0099, 201, 0.04636882, -0.88704759, -0.44290960, 0.93732554, 1.11736095, 3.04409194, 14.89201736, -60.07742691, 41.34732437, -2.63705516, 0.35429907, -2.69539142, 0.99945557, 0.02293143, -0.00363136, 0.02344209, -0.04006729, 0.93317765, -0.55600595, 87.59100342, 1211.66052246, 39.61000061, 0.00000000
1, 2.0199, 202, 0.04183116, -0.88724607, -0.44028372, 2.27935219, 1.83909881, 1.50826812, 15.14796638, -59.02192688, 41.57570648, -2.61318803, 0.34896189, -2.67318821, 0.99946499, 0.02272506, -0.00357552, 0.02325025, -0.03572624, 0.93301141, -0.55864984, 87.59100342, 1211.66052246, 39.61000061, 0.00000000
1, 2.0299, 203, 0.04088549, -0.89163357, -0.43740252, 3.89799762, 1.42771232, 0.14113666, 14.41668034, -59.24182510, 41.48054886, -2.57359600, 0.35398898, -2.66144013, 0.99947506, 0.02237908, -0.00360904, 0.02314803, -0.03475057, 0.93681663, -0.56155729, 87.59100342, 1211.66052246, 39.61000061, 0.00000000
1, 2.0399, 204, 0.04391299, -0.90014970, -0.43189216, 4.53103590, -0.08292568, -0.57811362, 13.68538952, -57.83449173, 41.42345047, -2.52848840, 0.35870981, -2.66665769, 0.99948263, 0.02198452, -0.00364211, 0.02319404, -0.03767720, 0.94455385, -0.56710196, 87.59100342, 1211.66052246, 39.61000061, 0.00000000
1, 2.0499, 205, 0.04725232, -0.91253173, -0.43040603, 3.31036448, -1.51201487, -0.86809802, 13.97790337, -59.46171951, 41.17603302, -2.49626756, 0.35970551, -2.68544722, 0.99948496, 0.02170269, -0.00364783, 0.02335876, -0.04096957, 0.95628119, -0.56861675, 87.59100342, 1211.66052246, 39.61000061, 0.00000000
1, 2.0599, 206, 0.05045168, -0.91802186, -0.42524138, 2.61817765, -2.70534134, -0.62739360, 14.45324135, -58.71406937, 41.42345047, -2.43916345, 0.35788542, -2.76378036, 0.99947941, 0.02120251, -0.00363481, 0.02404415, -0.04421671, 0.96115792, -0.57380837, 87.59100342, 1211.66052246, 39.61000061, 0.00000000
1, 2.0699, 207, 0.04507221, -0.91591728, -0.42251587, 1.53348291, -2.68950629, -0.00850092, 14.45324135, -58.71406937, 41.42345047, -2.42503214, 0.34601355, -2.78856015, 0.99947709, 0.02108099, -0.00353285, 0.02426293, -0.03895218, 0.95830357, -0.57656670, 87.59100342, 1211.66052246, 39.61000061, 0.00000000
1, 2.0799, 208, 0.04265581, -0.91709298, -0.42368913, 0.50850582, -2.59690070, 0.13720877, 14.38011456, -58.97794724, 41.02378082, -2.42106295, 0.33327037, -2.81143594, 0.99947321, 0.02104840, -0.00342507, 0.02446494, -0.03675358, 0.95935506, -0.57539999, 87.59100342, 1211.66052246, 39.61000061, 0.00000000
1, 2.0899, 209, 0.03933765, -0.92078435, -0.43061319, -0.15600236, -2.56866026, 0.19257067, 14.70919418, -60.20936584, 41.42345047, -2.42372131, 0.32016912, -2.83351016, 0.99946833, 0.02107376, -0.00331543, 0.02465982, -0.03366043, 0.96304339, -0.56847739, 87.59100342, 1211.66052246, 39.61000061, 0.00000000
1, 2.0999, 210, 0.04450277, -0.92795086, -0.43150043, -0.73082638, -2.97312045, 0.51981419, 14.48980618, -58.71406937, 40.90958786, -2.43220425, 0.30234978, -2.85753179, 0.99946189, 0.02115094, -0.00316626, 0.02487240, -0.03910297, 0.97032362, -0.56758684, 87.59100342, 1211.66052246, 39.61000061, 0.00000000
1, 2.1099, 211, 0.04398429, -0.92903799, -0.42674479, -0.94937783, -2.38932228, 0.39213002, 14.16072655, -58.80202866, 40.79539490, -2.38744688, 0.27999616, -2.93047905, 0.99945438, 0.02076355, -0.00297480, 0.02551395, -0.03891453, 0.97134185, -0.57234704, 87.59100342, 1211.66052246, 39.61000061, 0.00000000
1, 2.1199, 212, 0.03544837, -0.92072004, -0.42465538, -1.59775257, -0.87204820, -0.36501107, 14.16072655, -58.80202866, 40.79539490, -2.40385485, 0.27943793, -2.93923306, 0.99944949, 0.02090656, -0.00297518, 0.02558997, -0.03058136, 0.96255124, -0.57445741, 87.59100342, 1211.66052246, 39.61000061, 0.00000000
1, 2.1299, 213, 0.03272607, -0.91079003, -0.42864457, -2.18302155, -0.59164399, -1.00772250, 14.38011456, -59.02192688, 41.02378082, -2.42611146, 0.28589004, -2.94807029, 0.99944335, 0.02109899, -0.00303805, 0.02566528, -0.02778003, 0.95297289, -0.57045305, 87.59100342, 1211.66052246, 39.61000061, 0.00000000
1, 2.1399, 214, 0.03868828, -0.90453738, -0.43896514, -3.08572102, -2.11055541, -0.89626712, 14.30698395, -58.88999176, 41.23313141, -2.45802212, 0.28462318, -2.96963382, 0.99943262, 0.02137703, -0.00303817, 0.02585274, -0.03369623, 0.94720173, -0.56011182, 87.59100342, 1211.66052246, 39.61000061, 0.00000000
1, 2.1499, 215, 0.04830014, -0.89671278, -0.44101939, -3.27306008, -3.76478624, -0.56132758, 14.05103493, -59.02192688, 41.27119446, -2.49243760, 0.27300307, -3.00444913, 0.99941844, 0.02167892, -0.00295118, 0.02615768, -0.04344278, 0.93998605, -0.55803204, 87.59100342, 1211.66052246, 39.61000061, 0.00000000
1, 2.1599, 216, 0.05288877, -0.89180660, -0.43653420, -2.29223490, -4.26622772, 0.14583971, 13.86821175, -58.27427673, 40.73830032, -2.51180744, 0.26249322, -3.08987737, 0.99939513, 0.02184812, -0.00288023, 0.02690426, -0.04829111, 0.93555319, -0.56249785, 87.59100342, 1211.66052246, 39.61000061, 0.00000000
1, 2.1699, 217, 0.04685532, -0.89714599, -0.43408459, -0.68782389, -3.91796064, 0.60528833, 13.86821175, -58.27427673, 40.73830032, -2.52022910, 0.23967291, -3.12196422, 0.99938631, 0.02192620, -0.00268932, 0.02718828, -0.04252426, 0.94108373, -0.56494033, 87.59100342, 1211.66052246, 39.61000061, 0.00000000
1, 2.1799, 218, 0.03760678, -0.90539795, -0.43756777, 0.53014892, -3.64995646, 0.53688276, 14.41668034, -59.06590652, 40.71926498, -2.51637220, 0.21862754, -3.15247059, 0.99937999, 0.02189690, -0.00251069, 0.02745846, -0.03365812, 0.94933414, -0.56145877, 87.59100342, 1211.66052246, 39.61000061, 0.00000000
1, 2.1899, 219, 0.03565179, -0.91481465, -0.43768743, 0.30787513, -4.14176559, 0.07018717, 14.59950256, -60.34130478, 41.19506836, -2.51502156, 0.19958167, -3.18935084, 0.99937153, 0.02188894, -0.00235131, 0.02778378, -0.03204577, 0.95869088, -0.56134307, 87.59100342, 1211.66052246, 39.61000061, 0.00000000
1, 2.1999, 220, 0.03279407, -0.92167127, -0.43466014, -1.22300446, -4.66071081, -0.41065308, 14.41668034, -60.34130478, 41.32828903, -2.52926707, 0.18256068, -3.23236895, 0.99935853, 0.02201649, -0.00221459, 0.02816194, -0.02950126, 0.96567464, -0.56436574, 87.59100342, 1211.66052246, 39.61000061, 0.00000000
1, 2.2099, 221, 0.03371710, -0.92232662, -0.43280867, -3.44185662, -3.97915006, -1.18055856, 13.72195435, -60.69313812, 41.11893845, -2.55090117, 0.16927397, -3.31941032, 0.99933273, 0.02220683, -0.00212090, 0.02892318, -0.03065253, 0.96676111, -0.56619895, 87.59100342, 1211.66052246, 39.61000061, 0.00000000
1, 2.2199, 222, 0.02897783, -0.91480070, -0.43899095, -5.05477142, -3.60929298, -1.48425698, 13.72195435, -60.69313812, 41.11893845, -2.60315704, 0.16658148, -3.35615659, 0.99931318, 0.02266254, -0.00211788, 0.02924320, -0.02604884, 0.95986128, -0.55998898, 87.59100342, 1211.66052246, 39.61000061, 0.00000000
1, 2.2299, 223, 0.02494691, -0.90410554, -0.45428097, -5.34088469, -4.18274403, -1.17902815, 14.56293774, -59.50569916, 40.92861938, -2.65844584, 0.15857194, -3.39655828, 0.99929184, 0.02314602, -0.00207030, 0.02959612, -0.02211500, 0.95012933, -0.54465532, 87.59100342, 1211.66052246, 39.61000061, 0.00000000
1, 2.2399, 224, 0.03276059, -0.90008789, -0.47801235, -4.37073326, -5.50794554, -0.47156850, 14.67262936, -59.15386200, 40.70023346, -2.70444584, 0.13825098, -3.44604564, 0.99926960, 0.02355159, -0.00191514, 0.03003103, -0.03020361, 0.94699723, -0.52088344, 87.59100342, 1211.66052246, 39.61000061, 0.00000000
1, 2.2499, 225, 0.03741056, -0.90617937, -0.48582041, -0.42980745, -5.41239452, -0.23552202, 13.97790337, -58.67009354, 40.79539490, -2.71098685, 0.11614303, -3.49528098, 0.99925548, 0.02361370, -0.00173422, 0.03046483, -0.03524169, 0.95350552, -0.51305664, 87.59100342, 1211.66052246, 39.61000061, 0.00000000
1, 2.2599, 226, 0.03132183, -0.92423797, -0.47512436, 4.23621702, -4.79917336, -0.88730454, 14.01446915, -58.75804901, 41.34732437, -2.67160845, 0.09862406, -3.59101725, 0.99923766, 0.02327365, -0.00159042, 0.03130382, -0.02948816, 0.97113991, -0.52377349, 87.59100342, 1211.66052246, 39.61000061, 0.00000000
1, 2.2699, 227, 0.02598162, -0.93830037, -0.45796090, 5.34510708, -3.64585900, -2.69459462, 14.01446915, -58.75804901, 41.34732437, -2.62016344, 0.10635492, -3.63789797, 0.99923515, 0.02282226, -0.00165312, 0.03171179, -0.02420226, 0.98433769, -0.54097724, 87.59100342, 1211.66052246, 39.61000061, 0.00000000
1, 2.2799, 228, 0.02529079, -0.92932880, -0.45522726, 2.79302979, -2.57671595, -4.24635601, 14.56293774, -60.51721954, 41.06184387, -2.59405398, 0.13282481, -3.68103600, 0.99922824, 0.02258654, -0.00188521, 0.03208309, -0.02317040, 0.97470623, -0.54374039, 87.59100342, 1211.66052246, 39.61000061, 0.00000000
1, 2.2899, 229, 0.02513142, -0.91420907, -0.45724362, -1.04041755, -1.47527266, -5.23101139, 14.52637196, -60.73711777, 41.23313141, -2.60601091, 0.17309378, -3.71709394, 0.99921548, 0.02267880, -0.00224684, 0.03238931, -0.02238015, 0.95955497, -0.54172397, 87.59100342, 1211.66052246, 39.61000061, 0.00000000
1, 2.2999, 230, 0.03069665, -0.89375347, -0.46177453, -3.51223183, -1.76884508, -5.24719906, 14.30698395, -57.79050827, 41.00474548, -2.64281821, 0.21222904, -3.75481296, 0.99919713, 0.02298781, -0.00260606, 0.03270960, -0.02724005, 0.93959826, -0.53716803, 87.59100342, 1211.66052246, 39.61000061, 0.00000000
1, 2.3099, 231, 0.04334808, -0.87309384, -0.46293435, -5.44918728, -2.63398099, -4.67937517, 14.63606358, -58.53815460, 40.60507202, -2.71282482, 0.24692538, -3.84276915, 0.99915713, 0.02358605, -0.00294668, 0.03346774, -0.03928081, 0.91986054, -0.53596318, 87.59100342, 1211.66052246, 39.61000061, 0.00000000
1, 2.3199, 232, 0.04881338, -0.85324454, -0.46187082, -6.05194521, -2.72098923, -3.83560181, 14.63606358, -58.53815460, 40.73830032, -2.77517176, 0.26914969, -3.88168311, 0.99913251, 0.02412209, -0.00316686, 0.03380072, -0.04425166, 0.90125465, -0.53696549, 87.59100342, 1211.66052246, 39.61000061, 0.00000000
1, 2.3299, 233, 0.04821461, -0.84337246, -0.46799105, -5.00794506, -2.65983772, -2.87070417, 14.38011456, -57.48265076, 40.73830032, -2.82689953, 0.28295809, -3.91618633, 0.99911112, 0.02456802, -0.00330991, 0.03409714, -0.04335711, 0.89238065, -0.53079545, 87.59100342, 1211.66052246, 39.61000061, 0.00000000
1, 2.3399, 234, 0.04343849, -0.84617227, -0.46889406, -2.66473722, -2.13188243, -1.49566603, 14.01446915, -59.46171951, 40.92861938, -2.85472369, 0.28678977, -3.94080067, 0.99909770, 0.02480875, -0.00335692, 0.03431010, -0.03845093, 0.89582229, -0.52986020, 87.59100342, 1211.66052246, 39.61000061, 0.00000000
1, 2.3499, 235, 0.03254597, -0.85218644, -0.46880999, -0.50659925, -0.62390047, -0.32797623, 14.08759975, -59.02192688, 40.96668243, -2.86011958, 0.28692186, -3.94761729, 0.99909443, 0.02485555, -0.00336117, 0.03436935, -0.02753387, 0.90208912, -0.52993160, 87.59100342, 1211.66052246, 39.61000061, 0.00000000
1, 2.3599, 236, 0.01627100, -0.85939711, -0.45953199, 1.52722013, 1.36996496, 0.44600800, 14.74575996, -59.46171951, 40.75733185, -2.86777115, 0.24813518, -3.98461843, 0.99908209, 0.02493296, -0.00303334, 0.03470021, -0.01143278, 0.90925413, -0.53921264, 87.59100342, 1211.66052246, 39.61000061, 0.00000000
1, 2.3699, 237, 0.00387230, -0.86486655, -0.45075300, 2.60207367, 3.24590659, 0.62278497, 14.08759975, -58.09836197, 40.62410736, -2.84027815, 0.25711483, -3.95395017, 0.99909729, 0.02469136, -0.00309670, 0.03443161, 0.00055036, 0.91459978, -0.54799974, 87.59100342, 1211.66052246, 39.61000061, 0.00000000
1, 2.3799, 238, -0.00285226, -0.86750007, -0.44847617, 2.06826878, 4.10974073, 1.06445873, 14.08759975, -58.09836197, 40.62410736, -2.81766295, 0.26602584, -3.91335535, 0.99911416, 0.02449262, -0.00315892, 0.03407636, 0.00743961, 0.91679335, -0.55029762, 87.59100342, 1211.66052246, 39.61000061, 0.00000000
1, 2.3899, 239, 0.00014685, -0.87353235, -0.44787130, 1.27153575, 4.14641285, 1.59501684, 14.08759975, -57.87847137, 40.18637085, -2.80288696, 0.27036440, -3.86971831, 0.99913013, 0.02436371, -0.00318308, 0.03369537, 0.00455074, 0.92252105, -0.55091703, 87.59100342, 1211.66052246, 39.61000061, 0.00000000
1, 2.3999, 240, 0.00655871, -0.88399041, -0.44369173, 1.40305161, 4.22012091, 2.40476632, 14.08759975, -59.68161774, 41.15700150, -2.78660035, 0.26778454, -3.82185364, 0.99914753, 0.02422378, -0.00314568, 0.03327903, -0.00185924, 0.93271929, -0.55510932, 87.59100342, 1211.66052246, 39.61000061, 0.00000000
1, 2.4099, 241, 0.01426138, -0.89284527, -0.44142497, 1.94406223, 4.48431206, 3.30515885, 14.23385715, -59.76956940, 41.08087540, -2.76058841, 0.24475716, -3.81571937, 0.99915504, 0.02400384, -0.00293606, 0.03323111, -0.00974243, 0.94121444, -0.55739433, 87.59100342, 1211.66052246, 39.61000061, 0.00000000
1, 2.4199, 242, 0.02077769, -0.91241616, -0.44718626, 2.45305705, 4.64874411, 3.99261236, 14.38011456, -58.97794724, 40.75733185, -2.73335695, 0.22984532, -3.75735235, 0.99917775, 0.02377217, -0.00278603, 0.03272599, -0.01666414, 0.96029401, -0.55165845, 87.59100342, 1211.66052246, 39.61000061, 0.00000000
1, 2.4299, 243, 0.02163091, -0.94434124, -0.45192879, 3.49236131, 4.65604448, 4.04232121, 14.38011456, -58.97794724, 40.75733185, -2.69575286, 0.21446361, -3.69915318, 0.99920219, 0.02345002, -0.00262926, 0.03222260, -0.01778714, 0.99162626, -0.54694521, 87.59100342, 1211.66052246, 39.61000061, 0.00000000
1, 2.4399, 244, 0.02234218, -0.96394557, -0.43735427, 3.11377907, 4.11695480, 3.24112129, 14.27041817, -58.93396759, 41.15700150, -2.66231084, 0.20381179, -3.64919472, 0.99922299, 0.02316252, -0.00251688, 0.03178990, -0.01872695, 1.01059783, -0.56155038, 87.59100342, 1211.66052246, 39.61000061, 0.00000000
1, 2.4499, 245, 0.02980933, -0.96927810, -0.42848039, 0.11867131, 3.90582609, 2.12083554, 13.90477753, -58.49417496, 40.66217041, -2.65910387, 0.20227945, -3.60487103, 0.99923587, 0.02313595, -0.00249368, 0.03140378, -0.02628035, 1.01564312, -0.57043797, 87.59100342, 1211.66052246, 39.61000061, 0.00000000
1, 2.4599, 246, 0.03861464, -0.95756757, -0.43023866, -3.49319720, 3.76822639, 1.46101904, 14.23385715, -57.48265076, 40.66217041, -2.66886592, 0.20655152, -3.61269832, 0.99923170, 0.02321972, -0.00253519, 0.03147095, -0.03504572, 1.00417912, -0.56866801, 87.59100342, 1211.66052246, 39.61000061, 0.00000000
1, 2.4699, 247, 0.04280959, -0.93475360, -0.43086004, -6.27125883, 3.86935568, 1.29586244, 14.52637196, -59.59365463, 40.92861938, -2.72964644, 0.21239278, -3.56967640, 0.99923092, 0.02374909, -0.00259390, 0.03109324, -0.03913780, 0.98194635, -0.56801897, 87.59100342, 1211.66052246, 39.61000061, 0.00000000
1, 2.4799, 248, 0.04510192, -0.91219395, -0.43655005, -7.62362242, 4.43941927, 1.47019017, 14.52637196, -59.59365463, 40.92861938, -2.80366898, 0.21930794, -3.52022839, 0.99922866, 0.02439383, -0.00266376, 0.03065890, -0.04131830, 0.96061683, -0.56226969, 87.59100342, 1211.66052246, 39.61000061, 0.00000000
1, 2.4899, 249, 0.04205535, -0.88379776, -0.44028732, -7.18377161, 4.58900118, 1.98176003, 13.86821175, -59.32978439, 41.42345047, -2.87313700, 0.22237818, -3.46732497, 0.99922776, 0.02500000, -0.00269758, 0.03019530, -0.03819124, 0.93348908, -0.55846977, 87.59100342, 1211.66052246, 39.61000061, 0.00000000
1, 2.4999, 250, 0.04033902, -0.86484927, -0.44100097, -5.52430534, 5.09521723, 2.25099921, 14.45324135, -59.85753250, 40.92861938, -2.92574143, 0.22535907, -3.40941763, 0.99923116, 0.02545929, -0.00272456, 0.02968844, -0.03642976, 0.91557628, -0.55770391, 87.59100342, 1211.66052246, 39.61000061, 0.00000000
1, 2.5099, 251, 0.04411223, -0.85111976, -0.44796884, -3.39148808, 5.14540482, 2.29826331, 13.94133854, -59.15386200, 40.56701279, -2.96751356, 0.23240298, -3.39883280, 0.99922454, 0.02582197, -0.00279442, 0.02959356, -0.04012653, 0.90256971, -0.55069876, 87.59100342, 1211.66052246, 39.61000061, 0.00000000
1, 2.5199, 252, 0.04464020, -0.84956563, -0.44742888, -2.19225025, 4.90953445, 2.60604453, 13.57569790, -58.36223602, 41.06184387, -2.98684931, 0.23137140, -3.34238505, 0.99923462, 0.02599222, -0.00277762, 0.02910110, -0.04059693, 0.90155756, -0.55121046, 87.59100342, 1211.66052246, 39.61000061, 0.00000000
1, 2.5299, 253, 0.05001645, -0.85374779, -0.44592327, -0.81127697, 4.92065430, 2.58447433, 13.57569790, -58.36223602, 41.06184387, -2.99238205, 0.23057099, -3.28652072, 0.99924743, 0.02604201, -0.00275935, 0.02861401, -0.04598464, 0.90593886, -0.55270565, 87.59100342, 1211.66052246, 39.61000061, 0.00000000
1, 2.5399, 254, 0.05491233, -0.86174351, -0.44272718, 1.11879599, 5.22285986, 2.86617541, 14.38011456, -58.23030090, 41.25216293, -2.97845793, 0.22857252, -3.22750044, 0.99926525, 0.02592250, -0.00272509, 0.02810014, -0.05091295, 0.91382205, -0.55590785, 87.59100342, 1211.66052246, 39.61000061, 0.00000000
1, 2.5499, 255, 0.05798738, -0.86946964, -0.43699530, 2.64071059, 5.21479940, 3.03713202, 14.19729233, -59.32978439, 41.42345047, -2.94929838, 0.22495951, -3.16843247, 0.99928617, 0.02567049, -0.00267320, 0.02758655, -0.05402984, 0.92113191, -0.56166148, 87.59100342, 1211.66052246, 39.61000061, 0.00000000
1, 2.5599, 256, 0.05775476, -0.88360775, -0.44165292, 3.60573292, 4.80242062, 3.53527999, 14.12416077, -59.24182510, 41.46151352, -2.90933728, 0.22840862, -3.15703630, 0.99929780, 0.02532145, -0.00269114, 0.02748733, -0.05386594, 0.93464410, -0.55703634, 87.59100342, 1211.66052246, 39.61000061, 0.00000000
1, 2.5699, 257, 0.06712848, -0.91223305, -0.44274032, 5.60237074, 3.29970956, 4.04250574, 14.23385715, -59.85753250, 41.46151352, -2.85122180, 0.20704752, -3.11178112, 0.99932158, 0.02482077, -0.00248112, 0.02709869, -0.06336270, 0.96239614, -0.55599356, 87.59100342, 1211.66052246, 39.61000061, 0.00000000
1, 2.5799, 258, 0.06539340, -0.94770789, -0.43132162, 8.78617287, 2.20939469, 4.02741909, 14.23385715, -59.85753250, 41.46151352, -2.76178193, 0.18080099, -3.07769608, 0.99934882, 0.02404767, -0.00222392, 0.02680888, -0.06206531, 0.99650687, -0.56748140, 87.59100342, 1211.66052246, 39.61000061, 0.00000000
1, 2.5899, 259, 0.05921816, -0.96668297, -0.40875643, 9.07444382, 1.38477302, 3.16544223, 13.64882374, -59.32978439, 40.85249329, -2.66996479, 0.15851782, -3.05499983, 0.99937332, 0.02325256, -0.00200350, 0.02661726, -0.05632373, 1.01383519, -0.59012699, 87.59100342, 1211.66052246, 39.61000061, 0.00000000
1, 2.5999, 260, 0.05360926, -0.97473150, -0.40026024, 5.16848421, 0.98008084, 1.90324736, 13.83164692, -58.71406937, 41.08087540, -2.61758780, 0.14575896, -3.03992987, 0.99938732, 0.02279898, -0.00187706, 0.02648929, -0.05098922, 1.02068710, -0.59867978, 87.59100342, 1211.66052246, 39.61000061, 0.00000000
1, 2.6099, 261, 0.04926178, -0.97029519, -0.39947593, 0.26152414, -0.15691815, 0.87481612, 14.38011456, -60.69313812, 41.29022598, -2.50965452, 0.14716141, -3.09244156, 0.99939609, 0.02185647, -0.00187436, 0.02694875, -0.04677014, 1.01540375, -0.59950274, 87.59100342, 1211.66052246, 39.61000061, 0.00000000
1, 2.6199, 262, 0.04719027, -0.94937581, -0.40574846, -4.20981407, -2.02982903, -0.06494989, 14.30698395, -59.98946762, 41.46151352, -2.55255342, 0.13879646, -3.10912371, 0.99938405, 0.02223232, -0.00181473, 0.02709517, -0.04470800, 0.99358678, -0.59327066, 87.59100342, 1211.66052246, 39.61000061, 0.00000000
1, 2.6299, 263, 0.05001134, -0.91004533, -0.42100447, -6.14841175, -4.03746462, 0.05697867, 14.34354877, -60.38528061, 41.70893478, -2.61561203, 0.12041185, -3.14237285, 0.99936372, 0.02278613, -0.00167592, 0.02738780, -0.04777048, 0.95525944, -0.57797027, 87.59100342, 1211.66052246, 39.61000061, 0.00000000
1, 2.6399, 264, 0.05488872, -0.88825661, -0.44537899, -5.28169394, -5.25457525, 0.39788279, 14.34354877, -60.38528061, 41.70893478, -2.67042542, 0.09349322, -3.18535256, 0.99934244, 0.02327006, -0.00146299, 0.02776730, -0.05306939, 0.93452942, -0.55354816, 87.59100342, 1211.66052246, 39.61000061, 0.00000000
1, 2.6499, 265, 0.05718809, -0.88239133, -0.47552642, -0.60743958, -5.43285942, 0.94233787, 14.19729233, -58.80202866, 40.83345795, -2.67848587, 0.06079255, -3.22943544, 0.99933004, 0.02334783, -0.00118875, 0.02815830, -0.05591240, 0.92917275, -0.52337784, 87.59100342, 1211.66052246, 39.61000061, 0.00000000
1, 2.6599, 266, 0.04516564, -0.91541803, -0.47444841, 7.41788912, -4.92481995, -0.07350114, 14.52637196, -58.80202866, 41.15700150, -2.60902357, 0.04096052, -3.32049751, 0.99932134, 0.02274614, -0.00101680, 0.02895710, -0.04436406, 0.96146971, -0.52449024, 87.59100342, 1211.66052246, 39.61000061, 0.00000000
1, 2.6699, 267, 0.02755571, -0.94164783, -0.45489085, 11.31727314, -3.64989591, -2.74811006, 14.63606358, -58.53815460, 41.46151352, -2.49787021, 0.04911338, -3.37014627, 0.99933028, 0.02177427, -0.00106925, 0.02938950, -0.02679995, 0.98595572, -0.54412663, 87.59100342, 1211.66052246, 39.61000061, 0.00000000
1, 2.6799, 268, 0.02261446, -0.94946474, -0.44890869, 7.95705557, -2.37676597, -5.62906122, 14.63606358, -60.78109741, 41.08087540, -2.42030048, 0.08887947, -3.41974521, 0.99933201, 0.02108698, -0.00140528, 0.02981543, -0.02135937, 0.99212587, -0.55018008, 87.59100342, 1211.66052246, 39.61000061, 0.00000000
1, 2.6899, 269, 0.02672363, -0.94289464, -0.44207841, 1.82145643, -1.45382321, -7.29597950, 14.63606358, -60.78109741, 41.08087540, -2.40401745, 0.14782541, -3.46580791, 0.99932271, 0.02092885, -0.00192351, 0.03020653, -0.02454052, 0.98486149, -0.55703813, 87.59100342, 1211.66052246, 39.61000061, 0.00000000
1, 2.6999, 270, 0.04074265, -0.91319293, -0.43522021, -4.14471865, -2.18821526, -7.20527267, 14.52637196, -59.68161774, 41.02378082, -2.44766402, 0.20279795, -3.51554942, 0.99930108, 0.02129391, -0.00242365, 0.03062931, -0.03754888, 0.95554596, -0.56387734, 87.59100342, 1211.66052246, 39.61000061, 0.00000000
1, 2.7099, 271, 0.05832582, -0.88295716, -0.42995000, -7.94727993, -3.31156015, -6.42622948, 14.12416077, -59.63763428, 41.21409988, -2.52969408, 0.25759983, -3.61283612, 0.99925858, 0.02199207, -0.00294214, 0.03146535, -0.05424365, 0.92652380, -0.56909204, 87.59100342, 1211.66052246, 39.61000061, 0.00000000
1, 2.7199, 272, 0.07059090, -0.85374355, -0.43065271, -9.36296844, -4.27887106, -4.59651232, 14.70919418, -59.76956940, 41.30925751, -2.62594819, 0.27986479, -3.66760588, 0.99922431, 0.02282377, -0.00317363, 0.03193599, -0.06581391, 0.89892590, -0.56831455, 87.59100342, 1211.66052246, 39.61000061, 0.00000000
1, 2.7299, 273, 0.07316539, -0.82850021, -0.43810496, -8.47395611, -5.18603134, -2.19249773, 14.41668034, -59.37376022, 40.30056381, -2.71325231, 0.27646923, -3.72016072, 0.99919188, 0.02358454, -0.00317917, 0.03239253, -0.06828062, 0.87528360, -0.56078804, 87.59100342, 1211.66052246, 39.61000061, 0.00000000
1, 2.7399, 274, 0.07507323, -0.81846529, -0.44450435, -6.01691675, -5.60712433, 0.62123865, 14.41668034, -59.37376022, 40.30056381, -2.77563596, 0.24591707, -3.76492190, 0.99916661, 0.02413602, -0.00293984, 0.03278757, -0.07055484, 0.86652416, -0.55432987, 87.59100342, 1211.66052246, 39.61000061, 0.00000000
1, 2.7499, 275, 0.07515328, -0.81362802, -0.45560694, -1.85953498, -4.99567509, 3.01202250, 14.48980618, -58.36223602, 40.60507202, -2.79574990, 0.19662464, -3.79523087, 0.99915409, 0.02432488, -0.00252223, 0.03306183, -0.07138553, 0.86233854, -0.54319882, 87.59100342, 1211.66052246, 39.61000061, 0.00000000
1, 2.7599, 276, 0.07079139, -0.80880606, -0.45020476, 3.05124927, -2.71359801, 4.32819033, 14.48980618, -58.58213425, 40.70023346, -2.78577089, 0.16175461, -3.84642243, 0.99914151, 0.02424696, -0.00222614, 0.03351581, -0.06785482, 0.85740936, -0.54860908, 87.59100342, 1211.66052246, 39.61000061, 0.00000000
1, 2.7699, 277, 0.05279835, -0.81226498, -0.43873408, 7.99453020, 0.69171393, 5.17568111, 14.70919418, -60.78109741, 40.90958786, -2.70469093, 0.11842284, -3.82044768, 0.99916625, 0.02355312, -0.00181927, 0.03329983, -0.05045350, 0.86004847, -0.56012076, 87.59100342, 1211.66052246, 39.61000061, 0.00000000
1, 2.7799, 278, 0.03511912, -0.82453048, -0.41144660, 11.37732792, 2.40625286, 5.83419514, 14.48980618, -60.12141037, 40.79539490, -2.58902669, 0.07673406, -3.77770114, 0.99920189, 0.02255724, -0.00141373, 0.03293714, -0.03350837, 0.87048900, -0.58749527, 87.59100342, 1211.66052246, 39.61000061, 0.00000000
1, 2.7899, 279, 0.02370817, -0.84272552, -0.39696360, 12.44678116, 3.28758001, 7.02719831, 14.48980618, -60.12141037, 40.79539490, -2.46214628, 0.02817446, -3.72231531, 0.99924189, 0.02146530, -0.00094345, 0.03246483, -0.02288043, 0.88652188, -0.60207629, 87.59100342, 1211.66052246, 39.61000061, 0.00000000
1, 2.7999, 280, 0.01529756, -0.87139547, -0.38833818, 13.49778938, 3.82141280, 8.47662640, 14.23385715, -59.46171951, 41.13796997, -2.32436419, -0.03117537, -3.65628648, 0.99928528, 0.02028086, -0.00037518, 0.03190064, -0.01543043, 0.91289389, -0.61080015, 87.59100342, 1211.66052246, 39.61000061, 0.00000000
1, 2.8099, 281, 0.01382127, -0.90735257, -0.38098150, 18.20839310, 3.67495060, 10.25212097, 13.68538952, -59.24182510, 40.66217041, -2.12650704, -0.10874552, -3.62349248, 0.99932706, 0.01857692, 0.00036168, 0.03162780, -0.01518063, 0.94591451, -0.61827326, 87.59100342, 1211.66052246, 39.61000061, 0.00000000
1, 2.8199, 282, 0.01785547, -0.95320410, -0.35548219, 24.17753983, 3.33422327, 11.91420937, 14.05103493, -59.32978439, 40.90958786, -1.88181937, -0.20174517, -3.55177093, 0.99938250, 0.01646787, 0.00125058, 0.03101474, -0.02075859, 0.98771667, -0.64391696, 87.59100342, 1211.66052246, 39.61000061, 0.00000000
1, 2.8299, 283, 0.01813453, -0.99745846, -0.32444337, 27.24188042, 4.35782623, 12.69979858, 14.19729233, -60.16538239, 41.72796249, -1.60615110, -0.29777750, -3.46915197, 0.99943912, 0.01408803, 0.00217290, 0.03030276, -0.02270167, 1.02729702, -0.67509985, 87.59100342, 1211.66052246, 39.61000061, 0.00000000
1, 2.8399, 284, 0.02599051, -1.03311992, -0.29778317, 23.47405815, 5.86500883, 13.18247128, 14.19729233, -60.16538239, 41.72796249, -1.36769986, -0.39204937, -3.36971116, 0.99948949, 0.01203050, 0.00306863, 0.02944058, -0.03222065, 1.05844414, -0.70187604, 87.59100342, 1211.66052246, 39.61000061, 0.00000000
1, 2.8499, 285, 0.03437551, -1.04638231, -0.28387931, 13.32428074, 7.02936411, 13.74777985, 14.63606358, -60.29732513, 41.72796249, -1.23040819, -0.48672906, -3.25334573, 0.99952912, 0.01085327, 0.00394075, 0.02843067, -0.04224992, 1.06859684, -0.71584260, 87.59100342, 1211.66052246, 39.61000061, 0.00000000
1, 2.8599, 286, 0.04349826, -1.03005528, -0.28421643, 3.02863741, 7.43060732, 13.68224907, 14.05103493, -60.86905289, 41.59473801, -1.14962780, -0.57098645, -3.17174625, 0.99955291, 0.01016615, 0.00470298, 0.02772340, -0.05297939, 1.05083370, -0.71552253, 87.59100342, 1211.66052246, 39.61000061, 0.00000000
1, 2.8699, 287, 0.04938839, -1.00713718, -0.30967948, -2.94114399, 7.54519606, 12.20876694, 13.94133854, -60.73711777, 41.95634842, -1.17529392, -0.64964598, -3.05058384, 0.99957556, 0.01040329, 0.00539389, 0.02667451, -0.06024066, 1.02743006, -0.69005567, 87.59100342, 1211.66052246, 39.61000061, 0.00000000
1, 2.8799, 288, 0.05291817, -0.98757559, -0.33522308, -4.24871540, 6.64249420, 10.10197258, 13.75851536, -60.73711777, 41.68989944, -1.21468985, -0.71296692, -2.94588470, 0.99959242, 0.01075618, 0.00594690, 0.02576884, -0.06496187, 1.00852036, -0.66448498, 87.59100342, 1211.66052246, 39.61000061, 0.00000000
1, 2.8899, 289, 0.06580133, -0.96615541, -0.35775900, -2.82100630, 4.16023827, 8.30516529, 13.75851536, -60.73711777, 41.68989944, -1.24080348, -0.77050030, -2.87184668, 0.99960303, 0.01099268, 0.00645000, 0.02512971, -0.07887630, 0.98765427, -0.64192432, 87.59100342, 1211.66052246, 39.61000061, 0.00000000
1, 2.8999, 290, 0.07968616, -0.95410758, -0.38244337, -1.05590594, 1.69408309, 6.73618269, 13.68538952, -61.61669922, 41.21409988, -1.25016212, -0.82428914, -2.82749486, 0.99960834, 0.01108336, 0.00692145, 0.02474838, -0.09373003, 0.97589660, -0.61722052, 87.59100342, 1211.66052246, 39.61000061, 0.00000000
1, 2.9099, 291, 0.09458365, -0.95990247, -0.38395295, 4.12864494, 0.34058109, 4.86371851, 14.27041817, -59.94548798, 41.67086411, -1.17194569, -0.82449496, -2.85002685, 0.99961072, 0.01040247, 0.00693809, 0.02494022, -0.10927284, 0.98120540, -0.61571205, 87.59100342, 1211.66052246, 39.61000061, 0.00000000
1, 2.9199, 292, 0.10127309, -0.96393603, -0.37701666, 9.86096096, 0.95831835, 2.32788920, 13.72195435, -62.36434555, 42.35601807, -1.07286251, -0.84162676, -2.83567667, 0.99962139, 0.00954095, 0.00711029, 0.02481040, -0.11589282, 0.98335302, -0.62268782, 87.59100342, 1211.66052246, 39.61000061, 0.00000000
1, 2.9299, 293, 0.09800750, -0.97153109, -0.37196848, 10.31915951, 1.61873841, -0.08543482, 13.53913212, -60.78109741, 41.55667496, -0.96930277, -0.83411360, -2.82572532, 0.99963230, 0.00863533, 0.00706792, 0.02471662, -0.11264749, 0.98910224, -0.62776989, 87.59100342, 1211.66052246, 39.61000061, 0.00000000
1, 2.9399, 294, 0.08956261, -0.96073073, -0.37062943, 4.94388342, 1.27312684, -1.46493959, 13.53913212, -60.78109741, 41.55667496, -0.91971505, -0.81550688, -2.82240653, 0.99963784, 0.00819856, 0.00691654, 0.02468333, -0.10391602, 0.97703600, -0.62913460, 87.59100342, 1211.66052246, 39.61000061, 0.00000000
1, 2.9499, 295, 0.08268370, -0.94644123, -0.37066367, -0.58122957, -0.09043491, -0.45715889, 13.31974411, -59.94548798, 41.93731308, -0.92560410, -0.81173646, -2.82489586, 0.99963713, 0.00824928, 0.00688220, 0.02470514, -0.09684352, 0.96251893, -0.62910682, 87.59100342, 1211.66052246, 39.61000061, 0.00000000
1, 2.9599, 296, 0.07417896, -0.92723852, -0.37058815, -1.84851992, -0.46501574, 1.92949378, 13.75851536, -60.73711777, 42.18473053, -0.88374209, -0.77387351, -2.86881661, 0.99963284, 0.00787848, 0.00655790, 0.02508327, -0.08827619, 0.94333053, -0.62918293, 87.59100342, 1211.66052246, 39.61000061, 0.00000000
1, 2.9699, 297, 0.05928895, -0.91954416, -0.39531037, -0.68385893, 1.16166222, 4.82539320, 13.68538952, -61.04496765, 41.88021851, -0.88972324, -0.81281394, -2.83779287, 0.99963677, 0.00793728, 0.00689844, 0.02481556, -0.07320283, 0.93506306, -0.60447240, 87.59100342, 1211.66052246, 39.61000061, 0.00000000
1, 2.9799, 298, 0.03501755, -0.95546180, -0.40420198, 3.35237551, 4.95995808, 7.45932961, 13.06379032, -60.82507324, 41.51861191, -0.85413098, -0.85981679, -2.76298833, 0.99965215, 0.00763214, 0.00732116, 0.02416384, -0.04971358, 0.97068584, -0.59557408, 87.59100342, 1211.66052246, 39.61000061, 0.00000000
1, 2.9899, 299, 0.00582615, -0.98944777, -0.37310377, 9.17611027, 8.98110676, 7.78972387, 13.35630894, -61.30884552, 41.30925751, -0.75933915, -0.89315176, -2.65281034, 0.99967855, 0.00680487, 0.00763849, 0.02319849, -0.02123381, 1.00336492, -0.62668049, 87.59100342, 1211.66052246, 39.61000061, 0.00000000
1, 2.9999, 300, -0.02112200, -1.00166214, -0.34410182, 5.21129704, 12.84864807, 5.47493935, 13.35630894, -61.30884552, 41.30925751, -0.70352304, -0.88948786, -2.51550341, 0.99970907, 0.00630807, 0.00762539, 0.02199670, 0.00552024, 1.01414859, -0.65569848, 87.59100342, 1211.66052246, 39.61000061, 0.00000000
1, 3.0099, 301, -0.03009166, -1.00219524, -0.34374207, -9.14666271, 14.44491100, 2.77505851, 13.68538952, -61.30884552, 41.93731308, -0.77099520, -0.86210001, -2.40538025, 0.99972773, 0.00688438, 0.00738012, 0.02103889, 0.01488752, 1.01513517, -0.65605855, 87.59100342, 1211.66052246, 39.61000061, 0.00000000
1, 3.0199, 302, -0.02164620, -0.97682273, -0.35399073, -22.37440681, 14.10886860, 1.26157784, 13.46600056, -61.52874374, 42.37504959, -0.99096668, -0.81435335, -2.26261330, 0.99974132, 0.00878610, 0.00693413, 0.01980394, 0.00711742, 0.99251944, -0.64577985, 87.59100342, 1211.66052246, 39.61000061, 0.00000000
1, 3.0299, 303, -0.00876985, -0.92388386, -0.37230083, -31.67072678, 12.43548775, 1.57125199, 13.53913212, -60.73711777, 41.63280487, -1.30415928, -0.77574629, -2.12997794, 0.99973828, 0.01150428, 0.00655648, 0.01866189, -0.00499049, 0.94450426, -0.62739056, 87.59100342, 1211.66052246, 39.61000061, 0.00000000
1, 3.0399, 304, 0.01026674, -0.87249106, -0.39520079, -35.16133881, 10.05359840, 3.92250633, 13.13692093, -60.42926025, 42.03247452, -1.65254152, -0.76776260, -2.00753307, 0.99971855, 0.01453546, 0.00644560, 0.01761252, -0.02366878, 0.89904380, -0.60435528, 87.59100342, 1211.66052246, 39.61000061, 0.00000000
1, 3.0499, 305, 0.02931486, -0.82840401, -0.41682994, -32.82162857, 8.16751766, 7.07494640, 13.13692093, -60.42926025, 42.03247452, -1.97769475, -0.79566741, -1.88945448, 0.99968910, 0.01736948, 0.00665693, 0.01660481, -0.04297010, 0.86085504, -0.58254886, 87.59100342, 1211.66052246, 39.61000061, 0.00000000
1, 3.0599, 306, 0.03953280, -0.80980742, -0.44461507, -25.41316986, 7.42389917, 9.93706512, 13.13692093, -60.56120300, 41.32828903, -2.23817205, -0.84616190, -1.80100918, 0.99965626, 0.01964357, 0.00707483, 0.01585689, -0.05398304, 0.84723032, -0.55457920, 87.59100342, 1211.66052246, 39.61000061, 0.00000000
1, 3.0699, 307, 0.03032361, -0.81344390, -0.46855649, -13.44245338, 7.86930323, 11.50942802, 13.39287472, -61.96853638, 41.80408859, -2.36940765, -0.91447490, -1.67401516, 0.99964535, 0.02078919, 0.00767564, 0.01476940, -0.04583109, 0.85409743, -0.53049624, 87.59100342, 1211.66052246, 39.61000061, 0.00000000
1, 3.0799, 308, 0.00094282, -0.82208478, -0.48764658, -1.85778713, 8.70301437, 12.22979355, 13.57569790, -62.54026413, 41.67086411, -2.38470864, -0.98561412, -1.54116082, 0.99965370, 0.02092200, 0.00831851, 0.01362431, -0.01767068, 0.86374354, -0.51134521, 87.59100342, 1211.66052246, 39.61000061, 0.00000000
1, 3.0899, 309, -0.02689270, -0.82856935, -0.48501256, 7.15929604, 8.02532005, 12.85593224, 12.99066353, -61.04496765, 41.65183640, -2.31012726, -1.06559527, -1.41546953, 0.99967498, 0.02027072, 0.00904735, 0.01253637, 0.00883595, 0.86946148, -0.51398766, 87.59100342, 1211.66052246, 39.61000061, 0.00000000
1, 3.0999, 310, -0.04345030, -0.83871084, -0.46982035, 13.87331867, 6.83864021, 13.07411385, 12.99066353, -61.04496765, 41.65183640, -2.16882539, -1.15311038, -1.30244970, 0.99970359, 0.01903760, 0.00984507, 0.01155359, 0.02390089, 0.87754780, -0.52923357, 87.59100342, 1211.66052246, 39.61000061, 0.00000000
1, 3.1099, 311, -0.03516655, -0.85994840, -0.47652811, 20.16335869, 6.12793922, 11.24693871, 12.99066353, -61.74863815, 41.80408859, -1.97600091, -1.23144186, -1.23876703, 0.99973321, 0.01735715, 0.01055753, 0.01099312, 0.01418548, 0.89570129, -0.52261174, 87.59100342, 1211.66052246, 39.61000061, 0.00000000
1, 3.1199, 312, 0.04561711, -0.87919080, -0.47461450, 27.00871658, 1.21907628, 8.25752544, 13.24661255, -62.18843079, 42.05150604, -1.70504010, -1.30087304, -1.20339453, 0.99976802, 0.01499615, 0.01119389, 0.01066846, -0.06785093, 0.91078609, -0.52463788, 87.59100342, 1211.66052246, 39.61000061, 0.00000000
1, 3.1299, 313, 0.06300815, -0.88822466, -0.43581340, 28.26848984, -6.08706379, 2.26407075, 13.46600056, -62.76015854, 42.47021484, -1.42324078, -1.34776080, -1.26054037, 0.99979162, 0.01254755, 0.01162293, 0.01114452, -0.08631401, 0.91486895, -0.56355894, 87.59100342, 1211.66052246, 39.61000061, 0.00000000
1, 3.1399, 314, 0.04880966, -0.87628877, -0.41871411, 26.32505417, -7.19023561, -6.84116077, 12.99066353, -62.45230865, 42.12763596, -1.16171491, -1.31664884, -1.36575925, 0.99981028, 0.01027324, 0.01136745, 0.01203328, -0.07210425, 0.89825821, -0.58077228, 87.59100342, 1211.66052246, 39.61000061, 0.00000000
1, 3.1499, 315, 0.02975975, -0.84912932, -0.40888155, 26.48635292, -6.59096575, -16.21587181, 12.99066353, -62.45230865, 42.12763596, -0.89935076, -1.19752574, -1.50491130, 0.99982727, 0.00798436, 0.01034591, 0.01321333, -0.05156314, 0.86655581, -0.59072781, 87.59100342, 1211.66052246, 39.61000061, 0.00000000
1, 3.1599, 316, 0.06129480, -0.83127069, -0.42000878, 29.78976059, -8.16410160, -24.50327873, 13.17348671, -61.44078064, 42.35601807, -0.61016166, -1.00126600, -1.71903718, 0.99983454, 0.00545491, 0.00865660, 0.01504660, -0.08016586, 0.84385204, -0.57973248, 87.59100342, 1211.66052246, 39.61000061, 0.00000000
1, 3.1699, 317, 0.08455977, -0.83853066, -0.40559173, 39.08831406, -14.30853844, -31.60434151, 12.80784130, -61.79261780, 42.43214417, -0.22629954, -0.77220011, -1.99583805, 0.99982345, 0.00209185, 0.00670324, 0.01742896, -0.09957324, 0.84517723, -0.59427094, 87.59100342, 1211.66052246, 39.61000061, 0.00000000
1, 3.1799, 318, 0.12114442, -0.90106881, -0.39197928, 55.70667267, -19.25803185, -35.85499573, 12.88097191, -60.95701218, 42.48923874, 0.32055828, -0.52206081, -2.34019756, 0.99977750, -0.00270375, 0.00461198, 0.02040762, -0.13190562, 0.89929640, -0.60795665, 87.59100342, 1211.66052246, 39.61000061, 0.00000000
1, 3.1899, 319, 0.16457838, -1.05472398, -0.37432998, 70.28810120, -22.52082253, -33.98186111, 14.34354877, -61.22089005, 43.06019974, 1.01088822, -0.29818019, -2.71063828, 0.99967855, -0.00875751, 0.00280993, 0.02362862, -0.17113125, 1.04172826, -0.62555766, 87.59100342, 1211.66052246, 39.61000061, 0.00000000
1, 3.1999, 320, 0.12702815, -1.19229352, -0.31825095, 75.49134064, -27.26272964, -24.76338959, 14.34354877, -61.22089005, 43.40278244, 1.75185955, -0.17291208, -3.08897424, 0.99951947, -0.01524102, 0.00192026, 0.02692688, -0.13072181, 1.16657710, -0.68140471, 87.59100342, 1211.66052246, 39.61000061, 0.00000000
1, 3.2099, 321, 0.03325691, -1.24135697, -0.28212020, 72.06253052, -31.85142136, -16.44693947, 13.53913212, -60.69313812, 43.40278244, 2.46479654, -0.13678919, -3.49609256, 0.99930358, -0.02146131, 0.00184896, 0.03047168, -0.03579912, 1.20295680, -0.71713305, 87.59100342, 1211.66052246, 39.61000061, 0.00000000
1, 3.2199, 322, -0.06570467, -1.14657414, -0.22990756, 60.39880753, -35.97112274, -14.56424999, 13.21005249, -59.90151215, 43.25052261, 3.05280662, -0.12921895, -3.90927720, 0.99906391, -0.02658364, 0.00203515, 0.03406611, 0.06340489, 1.09695661, -0.76885420, 87.59100342, 1211.66052246, 39.61000061, 0.00000000
1, 3.2299, 323, -0.08143568, -1.03963804, -0.18691380, 41.05894089, -33.28091431, -13.04224968, 13.42943573, -59.59365463, 42.94601059, 3.44876075, -0.12330869, -4.28370667, 0.99884951, -0.03003032, 0.00219946, 0.03732437, 0.07923848, 0.98168063, -0.81140137, 87.59100342, 1211.66052246, 39.61000061, 0.00000000
1, 3.2399, 324, -0.06689534, -0.96440232, -0.15110882, 27.09295082, -28.05481339, -13.99707699, 13.53913212, -60.56120300, 42.60343552, 3.70682979, -0.08864227, -4.60651302, 0.99867010, -0.03228533, 0.00207232, 0.04014254, 0.06504395, 0.90132511, -0.84689736, 87.59100342, 1211.66052246, 39.61000061, 0.00000000
1, 3.2499, 325, -0.01438186, -0.97456348, -0.14614666, 22.73401260, -22.41530609, -13.60150051, 13.75851536, -60.91303253, 42.64150238, 3.92327905, -0.03713979, -4.87309217, 0.99851090, -0.03418565, 0.00177886, 0.04247692, 0.01341381, 0.90754062, -0.85160375, 87.59100342, 1211.66052246, 39.61000061, 0.00000000
1, 3.2599, 326, 0.00319440, -0.97709632, -0.14117296, 23.24429131, -21.16823387, -9.83266354, 13.75851536, -60.91303253, 42.64150238, 4.17305088, -0.01817591, -5.14563227, 0.99832988, -0.03636486, 0.00179270, 0.04485347, -0.00355718, 0.90614969, -0.85630625, 87.59100342, 1211.66052246, 39.61000061, 0.00000000
1, 3.2699, 327, 0.00274430, -0.99301147, -0.15335321, 21.41229439, -21.59599495, -5.49420881, 14.48980618, -60.25334549, 42.86988068, 4.37778854, -0.03820010, -5.37634659, 0.99817127, -0.03813645, 0.00212406, 0.04685330, -0.00321840, 0.91797960, -0.84382737, 87.59100342, 1211.66052246, 39.61000061, 0.00000000
1, 3.2799, 328, 0.00307431, -1.02983749, -0.12752196, 20.24338531, -22.66790009, 1.85214305, 14.45324135, -59.28580475, 43.30761719, 4.57188797, -0.13032071, -5.59237957, 0.99801612, -0.03978370, 0.00308081, 0.04869917, -0.00462729, 0.95141494, -0.86939651, 87.59100342, 1211.66052246, 39.61000061, 0.00000000
1, 3.2899, 329, -0.03099374, -1.04012012, -0.12372176, 18.48867607, -22.80492210, 9.46603966, 13.94133854, -59.68161774, 42.83182144, 4.75010920, -0.29413530, -5.78424215, 0.99787045, -0.04125832, 0.00465224, 0.05030584, 0.02702231, 0.95842528, -0.87292695, 87.59100342, 1211.66052246, 39.61000061, 0.00000000
1, 3.2999, 330, -0.06025474, -1.03582323, -0.13357954, 16.96530151, -21.91559029, 15.27266026, 13.61225796, -61.00099564, 42.50827408, 4.91487265, -0.50943357, -5.94861507, 0.99773455, -0.04258855, 0.00666035, 0.05164954, 0.05281869, 0.95123851, -0.86280817, 87.59100342, 1211.66052246, 39.61000061, 0.00000000
1, 3.3099, 331, -0.09860192, -1.01129115, -0.12785344, 17.74344254, -18.79528046, 17.93746948, 13.61225796, -61.00099564, 42.50827408, 5.11692238, -0.75395572, -6.10644102, 0.99757916, -0.04422429, 0.00894113, 0.05291599, 0.08714179, 0.92360294, -0.86822730, 87.59100342, 1211.66052246, 39.61000061, 0.00000000
1, 3.3199, 332, -0.11700208, -0.98071575, -0.13525040, 18.34103394, -15.01158524, 17.69878006, 12.99066353, -59.50569916, 42.48923874, 5.29879236, -0.96899223, -6.19966841, 0.99745494, -0.04569813, 0.01093408, 0.05362587, 0.10144897, 0.88961470, -0.86046886, 87.59100342, 1211.66052246, 39.61000061, 0.00000000
1, 3.3299, 333, -0.10046518, -0.96600169, -0.13465661, 22.08066368, -11.05612469, 15.78414440, 13.46600056, -59.94548798, 42.16569901, 5.51901340, -1.15286279, -6.26379585, 0.99732459, -0.04752049, 0.01266397, 0.05408496, 0.08152351, 0.87131381, -0.86066914, 87.59100342, 1211.66052246, 39.61000061, 0.00000000
1, 3.3399, 334, -0.08171117, -0.92334604, -0.14088425, 22.38441658, -9.58504486, 16.21844673, 14.16072655, -61.26486588, 42.50827408, 5.74280357, -1.33598864, -6.31345749, 0.99719346, -0.04937382, 0.01438451, 0.05441141, 0.05958571, 0.82476628, -0.85399789, 87.59100342, 1211.66052246, 39.61000061, 0.00000000
1, 3.3499, 335, -0.02809298, -0.90337986, -0.16883165, 22.41292000, -9.10429955, 15.15618801, 13.46600056, -62.10047150, 42.43214417, 5.96703148, -1.50731230, -6.36258459, 0.99705732, -0.05123496, 0.01600354, 0.05473191, 0.00291389, 0.80089986, -0.82558376, 87.59100342, 1211.66052246, 39.61000061, 0.00000000
1, 3.3599, 336, 0.02538956, -0.89629632, -0.16422758, 21.76410484, -8.74915600, 15.16563988, 13.46600056, -62.10047150, 42.43214417, 6.20430994, -1.66627610, -6.43953943, 0.99689722, -0.05320973, 0.01753544, 0.05529213, -0.05349605, 0.78993595, -0.82970178, 87.59100342, 1211.66052246, 39.61000061, 0.00000000
1, 3.3699, 337, 0.09761840, -0.91172290, -0.15693402, 19.51352882, -9.54037571, 16.31606102, 12.95409870, -60.34130478, 42.22279358, 6.39991093, -1.84972429, -6.48942995, 0.99676138, -0.05481179, 0.01924926, 0.05560549, -0.12869406, 0.80154848, -0.83649141, 87.59100342, 1211.66052246, 39.61000061, 0.00000000
1, 3.3799, 338, 0.09629847, -0.92329139, -0.10401736, 14.15241432, -10.03271198, 16.58579063, 13.02722931, -61.00099564, 42.31795502, 6.54203320, -2.03732729, -6.54151535, 0.99664485, -0.05594437, 0.02097517, 0.05593976, -0.13063502, 0.81028676, -0.88898301, 87.59100342, 1211.66052246, 39.61000061, 0.00000000
1, 3.3899, 339, 0.06528688, -0.89525980, -0.08304796, 7.03054523, -10.30640697, 13.10374260, 12.95409870, -62.98005676, 42.47021484, 6.61284351, -2.19274378, -6.60391426, 0.99655914, -0.05646936, 0.02239198, 0.05638996, -0.10257187, 0.78054041, -0.90964973, 87.59100342, 1211.66052246, 39.61000061, 0.00000000
1, 3.3999, 340, 0.03563572, -0.89104217, -0.07235726, 1.65426874, -10.28169537, 8.98981094, 12.73470974, -62.05649185, 42.29892349, 6.62978220, -2.30900908, -6.67614365, 0.99649858, -0.05654242, 0.02344692, 0.05695507, -0.07520971, 0.77574199, -0.92018473, 87.59100342, 1211.66052246, 39.61000061, 0.00000000
1, 3.4099, 341, 0.01914976, -0.87449765, -0.04592709, -0.77529943, -9.58912849, 5.32036161, 12.73470974, -62.05649185, 42.29892349, 6.70326996, -2.37381577, -6.79635715, 0.99639231, -0.05712266, 0.02410684, 0.05795166, -0.06029707, 0.75884831, -0.94651020, 87.59100342, 1211.66052246, 39.61000061, 0.00000000
1, 3.4199, 342, 0.02222129, -0.87186557, -0.02987508, -3.06469035, -10.61200142, 1.68473029, 12.33250427, -61.88057327, 42.39408493, 6.67281866, -2.42143345, -6.89148235, 0.99635178, -0.05681244, 0.02455260, 0.05876052, -0.06420353, 0.75554800, -0.96244931, 87.59100342, 1211.66052246, 39.61000061, 0.00000000
1, 3.4299, 343, 0.03392453, -0.86305130, -0.02494572, -4.24348211, -10.93402386, -2.30870891, 12.25937271, -61.39680099, 42.27989578, 6.63044214, -2.43198347, -7.00097799, 0.99631441, -0.05641478, 0.02467650, 0.05971620, -0.07633388, 0.74739730, -0.96743810, 87.59100342, 1211.66052246, 39.61000061, 0.00000000
1, 3.4399, 344, 0.05049038, -0.86817914, -0.01280185, -4.96337700, -11.41707706, -5.67411804, 13.13692093, -61.30884552, 41.78505707, 6.58069515, -2.41194677, -7.12476683, 0.99627674, -0.05596665, 0.02453686, 0.06081342, -0.09274092, 0.75333768, -0.97968310, 87.59100342, 1211.66052246, 39.61000061, 0.00000000
1, 3.4499, 345, 0.06270894, -0.88333017, -0.01311546, -7.16599655, -12.60240269, -7.71380424, 12.80784130, -62.49628448, 41.86118317, 6.50877571, -2.37621164, -7.26502562, 0.99624193, -0.05533142, 0.02425578, 0.06206632, -0.10441568, 0.76957345, -0.97951734, 87.59100342, 1211.66052246, 39.61000061, 0.00000000
1, 3.4599, 346, 0.04448086, -0.90948820, -0.00470232, -11.20251083, -13.34343910, -8.40258694, 12.80784130, -62.49628448, 41.86118317, 6.45286798, -2.32527852, -7.44914341, 0.99617523, -0.05483570, 0.02387088, 0.06370434, -0.08545873, 0.79711640, -0.98811847, 87.59100342, 1211.66052246, 39.61000061, 0.00000000
1, 3.4699, 347, 0.01111615, -0.97050458, -0.02956511, -16.15893364, -11.66087341, -7.66649199, 13.53913212, -62.05649185, 41.29022598, 6.29074240, -2.28799748, -7.57659817, 0.99618566, -0.05342158, 0.02351608, 0.06486434, -0.05127981, 0.85993612, -0.96349120, 87.59100342, 1211.66052246, 39.61000061, 0.00000000
1, 3.4799, 348, -0.02510313, -1.04167199, -0.04930121, -15.63858032, -9.23657894, -6.65031004, 13.06379032, -61.26486588, 41.29022598, 6.13381529, -2.25338745, -7.67819118, 0.99620479, -0.05205702, 0.02317254, 0.06579623, -0.01443706, 0.93392181, -0.94408989, 87.59100342, 1211.66052246, 39.61000061, 0.00000000
1, 3.4899, 349, -0.05107982, -1.10293078, -0.04359352, -12.79964066, -6.52767372, -6.19774342, 12.62501812, -60.73711777, 41.19506836, 6.00529337, -2.21492267, -7.75389481, 0.99622416, -0.05094741, 0.02279803, 0.06649830, 0.01216521, 0.99758863, -0.95008063, 87.59100342, 1211.66052246, 39.61000061, 0.00000000
1, 3.4999, 350, -0.09192371, -1.16460717, 0.00068627, -12.07039547, 0.11749830, -6.11300373, 13.02722931, -60.29732513, 41.21409988, 5.88418865, -2.15691948, -7.76651096, 0.99627805, -0.04992676, 0.02222900, 0.06665862, 0.05387414, 1.06136656, -0.99461448, 87.59100342, 1211.66052246, 39.61000061, 0.00000000
1, 3.5099, 351, -0.12899485, -1.22814429, 0.02693284, -13.57931232, 7.97621393, -5.74980497, 13.17348671, -61.61669922, 41.48054886, 5.78514147, -2.08583689, -7.74045134, 0.99634528, -0.04911304, 0.02154226, 0.06648323, 0.09215742, 1.12698209, -1.02112043, 87.59100342, 1211.66052246, 39.61000061, 0.00000000
1, 3.5199, 352, -0.13687564, -1.25367534, 0.01838702, -14.62648869, 12.04381752, -5.23920536, 13.17348671, -61.61669922, 41.48054886, 5.63906765, -1.99911380, -7.63620281, 0.99647820, -0.04791341, 0.02065992, 0.06564218, 0.10142292, 1.15451682, -1.01282656, 87.59100342, 1211.66052246, 39.61000061, 0.00000000
1, 3.5299, 353, -0.12071911, -1.22878838, -0.00245755, -15.50751591, 12.46383762, -4.04993248, 13.64882374, -60.64915848, 41.34732437, 5.48442316, -1.92214227, -7.52408504, 0.99661493, -0.04663325, 0.01985638, 0.06472775, 0.08671033, 1.13223958, -0.99228913, 87.59100342, 1211.66052246, 39.61000061, 0.00000000
1, 3.5399, 354, -0.07884470, -1.17732787, -0.01796929, -19.70857048, 11.51596451, -0.52376604, 13.42943573, -61.74863815, 41.49957657, 5.28804445, -1.88142967, -7.40824366, 0.99676329, -0.04496840, 0.01934591, 0.06377083, 0.04580212, 1.08384609, -0.97710270, 87.59100342, 1211.66052246, 39.61000061, 0.00000000
1, 3.5499, 355, -0.03872780, -1.15159214, -0.03749994, -25.74481583, 13.60774708, 4.09146309, 12.84440613, -60.51721954, 41.34732437, 5.03178549, -1.87748218, -7.25541973, 0.99694598, -0.04276702, 0.01911189, 0.06248596, 0.00600110, 1.06218839, -0.95795691, 87.59100342, 1211.66052246, 39.61000061, 0.00000000
1, 3.5599, 356, -0.03248900, -1.14326262, -0.04780258, -29.91777420, 18.42683220, 9.67240047, 13.35630894, -59.50569916, 41.04280853, 4.76380777, -1.91029334, -7.06700897, 0.99714077, -0.04044881, 0.01918469, 0.06087890, -0.00059814, 1.05867696, -0.94806325, 87.59100342, 1211.66052246, 39.61000061, 0.00000000
1, 3.5699, 357, -0.06453211, -1.13325024, -0.03952716, -29.69466019, 22.47629929, 12.97368336, 13.35630894, -59.50569916, 41.04280853, 4.46900892, -1.95960438, -6.79959202, 0.99737471, -0.03790195, 0.01936871, 0.05858350, 0.03065738, 1.05347967, -0.95670927, 87.59100342, 1211.66052246, 39.61000061, 0.00000000
1, 3.5799, 358, -0.11773199, -1.15594018, -0.03024040, -26.96195793, 28.23734856, 11.39892292, 13.64882374, -59.85753250, 40.68120193, 4.20164347, -1.97339284, -6.48410320, 0.99761629, -0.03562071, 0.01925399, 0.05587763, 0.08331487, 1.08099926, -0.96635270, 87.59100342, 1211.66052246, 39.61000061, 0.00000000
1, 3.5899, 359, -0.17782930, -1.25968063, -0.08948522, -27.04410362, 35.79349899, 9.94082832, 13.28317833, -60.25334549, 41.21409988, 3.93391418, -1.94640267, -6.10236502, 0.99788117, -0.03336599, 0.01877736, 0.05260682, 0.14365496, 1.18934751, -0.90745187, 87.59100342, 1211.66052246, 39.61000061, 0.00000000
1, 3.5999, 360, -0.23175734, -1.36986017, -0.10892523, -26.43173218, 41.16493988, 10.21008778, 14.30698395, -61.00099564, 41.19506836, 3.67297053, -1.90171397, -5.66965961, 0.99815220, -0.03118329, 0.01815074, 0.04889354, 0.19826567, 1.30417109, -0.88835192, 87.59100342, 1211.66052246, 39.61000061, 0.00000000
1, 3.6099, 361, -0.25390065, -1.43048036, -0.13301647, -24.09169579, 44.52505875, 12.59390640, 13.61225796, -59.54967499, 41.13796997, 3.44498706, -1.86928558, -5.22215986, 0.99839997, -0.02928067, 0.01765674, 0.04503972, 0.22110765, 1.36903262, -0.86455429, 87.59100342, 1211.66052246, 39.61000061, 0.00000000
1, 3.6199, 362, -0.23532423, -1.47766316, -0.20287313, -16.19819450, 47.91259384, 12.78159714, 13.61225796, -59.54967499, 41.13796997, 3.28774905, -1.82142806, -4.72197437, 0.99863255, -0.02800460, 0.01705588, 0.04071760, 0.20321970, 1.41948652, -0.79491651, 87.59100342, 1211.66052246, 39.61000061, 0.00000000
1, 3.6299, 363, -0.17612892, -1.46790564, -0.26723185, -3.00441432, 45.98681259, 13.01714897, 13.39287472, -59.41773987, 41.27119446, 3.26276255, -1.78143084, -4.24463844, 0.99880475, -0.02787070, 0.01658249, 0.03657123, 0.14481030, 1.41103375, -0.73065823, 87.59100342, 1211.66052246, 39.61000061, 0.00000000
1, 3.6399, 364, -0.06371737, -1.38522351, -0.35223982, 7.33506632, 37.43677521, 15.09093857, 13.72195435, -61.22089005, 42.24182510, 3.34066534, -1.79090464, -3.84439158, 0.99890596, -0.02860473, 0.01659011, 0.03306872, 0.03262010, 1.32760000, -0.64561403, 87.59100342, 1211.66052246, 39.61000061, 0.00000000
1, 3.6499, 365, 0.10943548, -1.30851877, -0.42496595, 14.86783695, 27.28961945, 20.12805176, 13.06379032, -62.01251602, 42.18473053, 3.49301124, -1.88367295, -3.52475905, 0.99894309, -0.02995372, 0.01735919, 0.03023529, -0.14158706, 1.24872267, -0.57272631, 87.59100342, 1211.66052246, 39.61000061, 0.00000000
1, 3.6599, 366, 0.29713920, -1.24488759, -0.47042760, 19.14283371, 21.17322159, 24.76768112, 12.73470974, -62.01251602, 42.45117950, 3.68563890, -2.02388620, -3.27358198, 0.99893546, -0.03163539, 0.01856287, 0.02797657, -0.33158815, 1.18185258, -0.52698833, 87.59100342, 1211.66052246, 39.61000061, 0.00000000
1, 3.6699, 367, 0.34311235, -1.18615663, -0.45735085, 6.89959145, 15.03483772, 27.04916382, 12.73470974, -62.01251602, 42.45117950, 3.75645709, -2.22588491, -3.04227495, 0.99893898, -0.03224233, 0.02027589, 0.02589008, -0.38061896, 1.12081313, -0.53980625, 87.59100342, 1211.66052246, 39.61000061, 0.00000000
1, 3.6799, 368, 0.25014082, -1.06778920, -0.41447267, -21.19477844, 8.50748253, 19.22828674, 12.73470974, -61.44078064, 41.95634842, 3.54504561, -2.37754345, -2.88712668, 0.99900538, -0.03039254, 0.02150904, 0.02453327, -0.29074466, 1.00423372, -0.58267832, 87.59100342, 1211.66052246, 39.61000061, 0.00000000
1, 3.6899, 369, 0.15624437, -0.89214903, -0.43088478, -43.93637466, -0.26186129, 8.32042408, 12.84440613, -61.57272339, 42.08957291, 3.10551238, -2.45754242, -2.84187245, 0.99911010, -0.02655125, 0.02210178, 0.02420175, -0.19867653, 0.83496249, -0.56657404, 87.59100342, 1211.66052246, 39.61000061, 0.00000000
1, 3.6999, 370, 0.12606773, -0.75616330, -0.46442324, -51.06846237, -14.66777611, -0.92555505, 12.44219589, -62.67220306, 42.10860443, 2.59461069, -2.50270414, -2.96054316, 0.99918455, -0.02206335, 0.02241031, 0.02532569, -0.16948079, 0.70757735, -0.53344870, 87.59100342, 1211.66052246, 39.61000061, 0.00000000
1, 3.7099, 371, 0.08426531, -0.66871560, -0.44563797, -48.66986084, -20.08551598, -7.48045635, 12.84440613, -64.03556061, 41.65183640, 2.09078383, -2.49838567, -3.17671132, 0.99922287, -0.01762898, 0.02229438, 0.02730968, -0.12802568, 0.62894201, -0.55260909, 87.59100342, 1211.66052246, 39.61000061, 0.00000000
1, 3.7199, 372, 0.04904028, -0.64644909, -0.44620156, -41.66373825, -10.29293728, -13.29022217, 12.84440613, -64.03556061, 41.65183640, 1.67376637, -2.41423011, -3.30436563, 0.99926472, -0.01398920, 0.02147658, 0.02851498, -0.09184194, 0.61464441, -0.55237365, 87.59100342, 1211.66052246, 39.61000061, 0.00000000
1, 3.7299, 373, 0.03217817, -0.65532893, -0.50306332, -36.75026321, 1.17372477, -15.40209866, 12.51532650, -63.46382904, 41.61376953, 1.30574036, -2.26772594, -3.33662796, 0.99932206, -0.01081135, 0.02011034, 0.02888048, -0.07274249, 0.63018483, -0.49579531, 87.59100342, 1211.66052246, 39.61000061, 0.00000000
1, 3.7399, 374, 0.03331596, -0.67830801, -0.53601480, -34.73604584, 6.64286709, -14.13311100, 12.73470974, -62.93607712, 40.96668243, 0.95803660, -2.11196661, -3.31530952, 0.99938136, -0.00782233, 0.01866278, 0.02876756, -0.07118128, 0.65937012, -0.46308690, 87.59100342, 1211.66052246, 39.61000061, 0.00000000
1, 3.7499, 375, 0.02488928, -0.69189703, -0.54254258, -28.16440964, 11.36346054, -10.01096344, 12.51532650, -61.61669922, 40.62410736, 0.67658925, -1.97548985, -3.23806882, 0.99943775, -0.00541404, 0.01739815, 0.02814728, -0.06019451, 0.67839450, -0.45674175, 87.59100342, 1211.66052246, 39.61000061, 0.00000000
1, 3.7599, 376, 0.00807282, -0.69271052, -0.54331666, -17.06196785, 12.81487370, -2.10418272, 12.95409870, -61.74863815, 40.56701279, 0.44954202, -1.90228689, -3.15202355, 0.99947810, -0.00346442, 0.01670129, 0.02743402, -0.04167562, 0.68318236, -0.45607251, 87.59100342, 1211.66052246, 39.61000061, 0.00000000
1, 3.7699, 377, 0.00524815, -0.70447838, -0.54598564, -4.69783592, 13.29556084, 5.95411301, 12.95409870, -61.74863815, 40.56701279, 0.40388021, -1.90399826, -3.00440955, 0.99951369, -0.00308725, 0.01670132, 0.02615309, -0.03835107, 0.69728130, -0.45344037, 87.59100342, 1211.66052246, 39.61000061, 0.00000000
1, 3.7799, 378, 0.00049954, -0.70314610, -0.55778152, 4.53336906, 11.98552704, 16.05858803, 12.18624687, -63.06801224, 40.58604431, 0.45070133, -2.00359964, -2.83251214, 0.99953568, -0.00349917, 0.01757553, 0.02464309, -0.03468185, 0.69571197, -0.44160622, 87.59100342, 1211.66052246, 39.61000061, 0.00000000
1, 3.7899, 379, -0.03859143, -0.73687363, -0.55672729, 12.92553329, 11.24914742, 24.24407768, 12.88097191, -62.67220306, 40.79539490, 0.58127666, -2.18149734, -2.63860321, 0.99954313, -0.00463203, 0.01914748, 0.02292311, 0.00176619, 0.72770381, -0.44255179, 87.59100342, 1211.66052246, 39.61000061, 0.00000000
1, 3.7999, 380, -0.09352880, -0.76152432, -0.52873558, 25.07661438, 9.34302139, 25.94222832, 11.93029308, -62.84811401, 40.62410736, 0.83280736, -2.38305879, -2.46122193, 0.99953002, -0.00681772, 0.02094531, 0.02132025, 0.05325259, 0.74886274, -0.47037145, 87.59100342, 1211.66052246, 39.61000061, 0.00000000
1, 3.8099, 381, -0.11525977, -0.85271585, -0.49368912, 36.53520966, 7.01718998, 23.55551338, 11.74746990, -62.58424377, 41.38538742, 1.18529665, -2.58121467, -2.34501767, 0.99948835, -0.00987782, 0.02272912, 0.02022350, 0.07156555, 0.83432889, -0.50518465, 87.59100342, 1211.66052246, 39.61000061, 0.00000000
1, 3.8199, 382, -0.11398591, -0.92197663, -0.47503379, 36.85385132, 3.65139365, 25.97989845, 11.74746990, -62.58424377, 41.63280487, 1.55383980, -2.80687618, -2.22743464, 0.99942571, -0.01307676, 0.02474875, 0.01909715, 0.06652157, 0.89726603, -0.52353120, 87.59100342, 1211.66052246, 39.61000061, 0.00000000
1, 3.8299, 383, -0.09822445, -0.94925022, -0.40367439, 28.39961052, 4.34538317, 23.55939293, 11.52808189, -63.19995117, 41.63280487, 1.83733988, -3.00828409, -2.11024022, 0.99936527, -0.01554159, 0.02653652, 0.01798478, 0.04702203, 0.91896576, -0.59455335, 87.59100342, 1211.66052246, 39.61000061, 0.00000000
1, 3.8399, 384, -0.08465113, -0.90967947, -0.38090456, 21.38416100, 4.50087929, 21.17589760, 11.67433929, -64.87116241, 41.19506836, 2.05030680, -3.18760514, -1.99838257, 0.99930990, -0.01739676, 0.02811670, 0.01693121, 0.03015840, 0.87527609, -0.61701590, 87.59100342, 1211.66052246, 39.61000061, 0.00000000
1, 3.8499, 385, -0.07197890, -0.83865601, -0.39782572, 18.20826721, 4.98380899, 18.43597412, 11.74746990, -65.17901611, 41.97537994, 2.23122358, -3.34010792, -1.89145207, 0.99925900, -0.01897801, 0.02945553, 0.01592779, 0.01469748, 0.80093479, -0.59981883, 87.59100342, 1211.66052246, 39.61000061, 0.00000000
