SensorId, TimeStamp (s), FrameNumber, AccX (g), AccY (g), AccZ (g), GyroX (deg/s), GyroY (deg/s), GyroZ (deg/s), MagX (uT), MagY (uT), MagZ (uT), EulerX (deg), EulerY (deg), EulerZ (deg), QuatW, QuatX, QuatY, QuatZ, LinAccX (g), LinAccY (g), LinAccZ (g), Pressure (kPa), Altitude (m), Temperature (degC), HeaveMotion (m)
1, 0.0001, 0, 0.01910711, -0.97641319, -0.24129939, -0.33397138, -0.03508323, -0.17989461, 12.07655048, -63.28790665, 49.41689682, -0.64382505, -0.16511534, -2.78848243, 0.99968690, 0.00565179, 0.00130375, 0.02433937, -0.02200228, 0.98763263, -0.75863349, 87.60000610, 1210.81738281, 39.34000015, 0.00000000
1, 0.0101, 1, 0.01636031, -0.97879916, -0.24140804, -0.39066502, 0.25580528, -0.15602723, 11.74746990, -63.99157715, 49.13142014, -0.64768964, -0.16299298, -2.78627229, 0.99968731, 0.00568503, 0.00128452, 0.02432004, -0.01921751, 0.99008071, -0.75852430, 87.60000610, 1210.81738281, 39.34000015, 0.00000000
1, 0.0201, 2, 0.01615598, -0.97871161, -0.23937891, -0.31826505, 0.34385124, -0.25986761, 12.66158390, -64.78320312, 49.66431046, -0.65079993, -0.15965587, -2.78348231, 0.99968773, 0.00571143, 0.00125489, 0.02429556, -0.01896675, 0.99005079, -0.76055288, 87.60000610, 1210.81738281, 39.34000015, 0.00000000
1, 0.0301, 3, 0.01511787, -0.97892046, -0.24065325, -0.22838078, 0.29280978, -0.24363737, 12.66158390, -64.78320312, 49.66431046, -0.66452509, -0.17407610, -2.85043859, 0.99967253, 0.00583502, 0.00137437, 0.02488056, -0.01794634, 0.99035496, -0.75927740, 87.60000610, 1210.81738281, 39.34000015, 0.00000000
1, 0.0401, 4, 0.01706352, -0.97786307, -0.24213208, -0.30333465, 0.56583172, -0.18493314, 11.45495605, -63.94759750, 49.64528275, -0.66746449, -0.17093058, -2.84530091, 0.99967349, 0.00585992, 0.00134655, 0.02483561, -0.02007084, 0.98949391, -0.75779581, 87.60000610, 1210.81738281, 39.34000015, 0.00000000
1, 0.0501, 5, 0.01737370, -0.97656548, -0.24098095, -0.07574528, 0.50419903, -0.06099349, 11.45495605, -64.03556061, 49.55012131, -0.66811746, -0.16913982, -2.84052777, 0.99967456, 0.00586518, 0.00133103, 0.02479389, -0.02033205, 0.98822510, -0.75894678, 87.60000610, 1210.81738281, 39.34000015, 0.00000000
1, 0.0601, 6, 0.01827480, -0.97645098, -0.24161643, -0.24618457, 0.57273597, 0.01224339, 11.23556709, -63.72769928, 50.00689316, -0.67046195, -0.16789253, -2.83487463, 0.99967563, 0.00588529, 0.00131994, 0.02474454, -0.02121638, 0.98813438, -0.75831103, 87.60000610, 1210.81738281, 39.34000015, 0.00000000
1, 0.0701, 7, 0.01791382, -0.97722161, -0.24141052, -0.24753715, 0.64048743, 0.06640683, 11.93029308, -64.78320312, 49.72140503, -0.67281193, -0.16700272, -2.82844377, 0.99967694, 0.00590553, 0.00131200, 0.02468842, -0.02083582, 0.98894668, -0.75851649, 87.60000610, 1210.81738281, 39.34000015, 0.00000000
1, 0.0801, 8, 0.01692228, -0.97940934, -0.24085243, -0.23248817, 0.98397022, 0.05600379, 11.63777828, -64.78320312, 49.93076324, -0.67833763, -0.16947095, -2.88647056, 0.99966401, 0.00595494, 0.00132932, 0.02519482, -0.01983354, 0.99119127, -0.75907391, 87.60000610, 1210.81738281, 39.34000015, 0.00000000
1, 0.0901, 9, 0.01560143, -0.97959894, -0.24166819, -0.14640300, 1.18850088, 0.18308856, 11.63777828, -63.85964203, 49.93076324, -0.67954814, -0.16842484, -2.87446070, 0.99966657, 0.00596513, 0.00132056, 0.02509001, -0.01855113, 0.99145472, -0.75825721, 87.60000610, 1210.81738281, 39.34000015, 0.00000000
1, 0.1001, 10, 0.01358945, -0.97928464, -0.24221098, -0.11178986, 1.32600451, 0.18587348, 11.30869865, -64.78320312, 49.58818436, -0.68039036, -0.16707715, -2.86111331, 0.99966943, 0.00597203, 0.00130931, 0.02497351, -0.01651604, 0.99115741, -0.75771421, 87.60000610, 1210.81738281, 39.34000015, 0.00000000
1, 0.1101, 11, 0.01358214, -0.97486329, -0.24227166, -0.05786029, 1.49996018, 0.06631751, 12.80784130, -65.53085327, 49.34076691, -0.68065268, -0.16415250, -2.84637904, 0.99967271, 0.00597352, 0.00128451, 0.02484483, -0.01646547, 0.98674005, -0.75765365, 87.60000610, 1210.81738281, 39.34000015, 0.00000000
1, 0.1201, 12, 0.01478310, -0.97555178, -0.24392499, -0.14997566, 1.39232826, 0.31043282, 11.82060146, -65.22299194, 49.83560181, -0.68183279, -0.16386919, -2.83207893, 0.99967575, 0.00598359, 0.00128253, 0.02472007, -0.01764904, 0.98744297, -0.75600028, 87.60000610, 1210.81738281, 39.34000015, 0.00000000
1, 0.1301, 13, 0.01468734, -0.97574705, -0.24321975, -0.13293287, 1.65148008, 0.21035917, 11.89372730, -65.22299194, 50.06398773, -0.68965572, -0.16685337, -2.88230038, 0.99966431, 0.00605305, 0.00130422, 0.02515843, -0.01754748, 0.98768520, -0.75670493, 87.60000610, 1210.81738281, 39.34000015, 0.00000000
1, 0.1401, 14, 0.01704358, -0.97557819, -0.24402356, -0.42193446, 1.66408932, 0.35213509, 11.89372730, -65.22299194, 50.06398773, -0.69350636, -0.16631462, -2.86520004, 0.99966788, 0.00608633, 0.00129958, 0.02500927, -0.01994593, 0.98764718, -0.75589937, 87.60000610, 1210.81738281, 39.34000015, 0.00000000
1, 0.1501, 15, 0.01846832, -0.97797620, -0.24334827, -0.27780297, 1.50998032, 0.40118897, 12.22280693, -64.47534943, 49.55012131, -0.69595110, -0.16662233, -2.84951162, 0.99967122, 0.00610755, 0.00130257, 0.02487245, -0.02137510, 0.99010020, -0.75657398, 87.60000610, 1210.81738281, 39.34000015, 0.00000000
1, 0.1601, 16, 0.01995079, -0.97830480, -0.24238062, -0.29453841, 1.45924091, 0.34743854, 11.71090508, -63.77168274, 49.55012131, -0.69857681, -0.16651769, -2.83445621, 0.99967432, 0.00613026, 0.00130189, 0.02474114, -0.02285696, 0.99048167, -0.75754106, 87.60000610, 1210.81738281, 39.34000015, 0.00000000
1, 0.1701, 17, 0.02157036, -0.97844952, -0.24331778, -0.34812307, 1.35504258, 0.39814678, 12.40563011, -64.56330872, 50.29236603, -0.70176238, -0.16715214, -2.82027817, 0.99967718, 0.00615803, 0.00130750, 0.02461752, -0.02448247, 0.99067253, -0.75660324, 87.60000610, 1210.81738281, 39.34000015, 0.00000000
1, 0.1801, 18, 0.02208881, -0.97892684, -0.24153098, -0.40278524, 1.42294514, 0.41731992, 11.67433929, -65.88268280, 50.06398773, -0.70837444, -0.16596103, -2.87229562, 0.99966550, 0.00621604, 0.00129287, 0.02507132, -0.02500142, 0.99122798, -0.75838912, 87.60000610, 1210.81738281, 39.34000015, 0.00000000
1, 0.1901, 19, 0.01889868, -0.97762507, -0.24001807, -0.15286951, 1.44092131, 0.48724636, 11.67433929, -65.88268280, 50.06398773, -0.70958722, -0.16726351, -2.85710406, 0.99966872, 0.00622673, 0.00130479, 0.02493888, -0.02181040, 0.99000794, -0.75990105, 87.60000610, 1210.81738281, 39.34000015, 0.00000000
1, 0.2001, 20, 0.01801515, -0.97610086, -0.24084754, -0.22210065, 1.40863180, 0.32857463, 11.93029308, -63.63974380, 49.13142014, -0.71151060, -0.16709203, -2.84258008, 0.99967176, 0.00624331, 0.00130367, 0.02481219, -0.02093527, 0.98850256, -0.75907129, 87.60000610, 1210.81738281, 39.34000015, 0.00000000
1, 0.2101, 21, 0.01648999, -0.97526127, -0.24138126, -0.18854399, 1.52754998, 0.41886356, 12.29593849, -64.03556061, 49.75947571, -0.71306354, -0.16751564, -2.82671785, 0.99967510, 0.00625677, 0.00130789, 0.02467385, -0.01941056, 0.98769879, -0.75853717, 87.60000610, 1210.81738281, 39.34000015, 0.00000000
1, 0.2201, 22, 0.01724733, -0.97386807, -0.24203989, -0.22215453, 1.49525535, 0.27766100, 12.14968109, -63.46382904, 49.66431046, -0.71495032, -0.16665728, -2.81147003, 0.99967837, 0.00627287, 0.00130083, 0.02454081, -0.02016559, 0.98632920, -0.75787818, 87.60000610, 1210.81738281, 39.34000015, 0.00000000
1, 0.2301, 23, 0.01579282, -0.97471088, -0.24412331, -0.07838935, 1.46207535, 0.27652347, 12.03998470, -65.88268280, 49.70237732, -0.72479451, -0.17017446, -2.86488295, 0.99966621, 0.00636012, 0.00132644, 0.02500707, -0.01871038, 0.98724055, -0.75579387, 87.60000610, 1210.81738281, 39.34000015, 0.00000000
1, 0.2401, 24, 0.01691018, -0.97497040, -0.24402067, -0.02610344, 1.54740155, 0.33089235, 12.03998470, -65.88268280, 49.70237732, -0.72471756, -0.16969620, -2.84906530, 0.99966973, 0.00635916, 0.00132317, 0.02486905, -0.01987510, 0.98761678, -0.75589496, 87.60000610, 1210.81738281, 39.34000015, 0.00000000
1, 0.2501, 25, 0.01698505, -0.97613764, -0.24338208, -0.13057289, 1.44621992, 0.17088000, 11.52808189, -63.28790665, 49.22657394, -0.72571373, -0.16790444, -2.83457613, 0.99967271, 0.00636730, 0.00130812, 0.02474257, -0.01992294, 0.98879993, -0.75653350, 87.60000610, 1210.81738281, 39.34000015, 0.00000000
1, 0.2601, 26, 0.01759049, -0.97722101, -0.23978332, -0.14883314, 1.42835331, 0.20571685, 11.89372730, -63.02403641, 49.56915665, -0.72690517, -0.16648705, -2.82019162, 0.99967587, 0.00637722, 0.00129630, 0.02461702, -0.02050669, 0.98989928, -0.76013201, 87.60000610, 1210.81738281, 39.34000015, 0.00000000
1, 0.2701, 27, 0.02006243, -0.97976959, -0.23823617, -0.13069148, 1.32471764, 0.25621745, 12.14968109, -64.38739014, 50.00689316, -0.72792810, -0.16581310, -2.80668354, 0.99967861, 0.00638585, 0.00129096, 0.02449914, -0.02296284, 0.99246812, -0.76167905, 87.60000610, 1210.81738281, 39.34000015, 0.00000000
1, 0.2801, 28, 0.02327810, -0.98019749, -0.23709644, -0.12985654, 1.15233040, 0.30532560, 11.41839027, -64.47534943, 50.34946442, -0.72739464, -0.15712944, -2.86245751, 0.99966681, 0.00637993, 0.00121221, 0.02498522, -0.02613520, 0.99290305, -0.76281875, 87.60000610, 1210.81738281, 39.34000015, 0.00000000
1, 0.2901, 29, 0.02441901, -0.98018807, -0.23662239, -0.16410837, 1.13661540, 0.19963020, 11.41839027, -64.47534943, 50.34946442, -0.72879380, -0.15636098, -2.85089660, 0.99966919, 0.00639185, 0.00120585, 0.02488434, -0.02715106, 0.99289596, -0.76329309, 87.60000610, 1210.81738281, 39.34000015, 0.00000000
1, 0.3001, 30, 0.02506259, -0.98053545, -0.23523328, -0.20177150, 1.06485760, 0.37401983, 12.55188751, -66.10257721, 49.94979858, -0.73056316, -0.15745679, -2.83962083, 0.99967158, 0.00640740, 0.00121565, 0.02478606, -0.02780539, 0.99327892, -0.76468176, 87.60000610, 1210.81738281, 39.34000015, 0.00000000
1, 0.3101, 31, 0.02542557, -0.98105276, -0.23692529, -0.27216154, 0.94451189, 0.35412684, 11.71090508, -63.81566238, 49.51205444, -0.73308659, -0.15863687, -2.82954240, 0.99967355, 0.00642956, 0.00122597, 0.02469822, -0.02818654, 0.99382985, -0.76298928, 87.60000610, 1210.81738281, 39.34000015, 0.00000000
1, 0.3201, 32, 0.02448136, -0.97930747, -0.23830767, -0.14410785, 0.77511519, 0.27986038, 11.82060146, -63.33188629, 49.64528275, -0.73435652, -0.15949942, -2.82131290, 0.99967527, 0.00644074, 0.00123368, 0.02462649, -0.02725775, 0.99211526, -0.76160645, 87.60000610, 1210.81738281, 39.34000015, 0.00000000
1, 0.3301, 33, 0.02092592, -0.98161894, -0.23808615, -0.17686719, 0.62246466, 0.15370323, 12.44219589, -63.33188629, 49.70237732, -0.73563337, -0.15933226, -2.88432097, 0.99966151, 0.00645252, 0.00122840, 0.02517616, -0.02371196, 0.99445373, -0.76182759, 87.60000610, 1210.81738281, 39.34000015, 0.00000000
1, 0.3401, 34, 0.01884887, -0.97992575, -0.23717365, -0.31971598, 0.74341446, 0.03363498, 12.44219589, -63.33188629, 49.70237732, -0.73866963, -0.15788114, -2.87695789, 0.99966300, 0.00647861, 0.00121549, 0.02511188, -0.02161235, 0.99279106, -0.76273978, 87.60000610, 1210.81738281, 39.34000015, 0.00000000
1, 0.3501, 35, 0.01634085, -0.97776383, -0.23740092, -0.24844232, 0.84746695, 0.00044789, 12.18624687, -63.59576416, 50.15914154, -0.74097699, -0.15586628, -2.86866975, 0.99966466, 0.00649821, 0.00119788, 0.02503949, -0.01907845, 0.99068213, -0.76251185, 87.60000610, 1210.81738281, 39.34000015, 0.00000000
1, 0.3601, 36, 0.01497603, -0.97653484, -0.23931466, -0.10639599, 1.00296748, 0.00328242, 12.00342369, -64.65126801, 49.74044037, -0.74183232, -0.15350083, -2.85889959, 0.99966681, 0.00650506, 0.00117761, 0.02495414, -0.01766879, 0.98947662, -0.76059794, 87.60000610, 1210.81738281, 39.34000015, 0.00000000
1, 0.3701, 37, 0.01829814, -0.97611475, -0.23770617, -0.07004775, 1.00382197, -0.03196745, 11.96685791, -63.28790665, 49.32173538, -0.74233258, -0.15079592, -2.84922171, 0.99966890, 0.00650874, 0.00115445, 0.02486956, -0.02094679, 0.98907304, -0.76220638, 87.60000610, 1210.81738281, 39.34000015, 0.00000000
1, 0.3801, 38, 0.01760448, -0.97684455, -0.23848818, -0.06964898, 0.98695564, -0.04990155, 11.85716152, -63.99157715, 49.56915665, -0.74180317, -0.15562868, -2.90989470, 0.99965560, 0.00650580, 0.00119328, 0.02539912, -0.02024105, 0.98980081, -0.76142436, 87.60000610, 1210.81738281, 39.34000015, 0.00000000
1, 0.3901, 39, 0.01743124, -0.97877461, -0.24001157, -0.18001366, 1.15620649, 0.04188596, 12.84440613, -65.04708099, 49.85463333, -0.74335629, -0.15327150, -2.89852190, 0.99965799, 0.00651871, 0.00117302, 0.02529979, -0.02012193, 0.99173462, -0.75990081, 87.60000610, 1210.81738281, 39.34000015, 0.00000000
1, 0.4001, 40, 0.01635350, -0.97937697, -0.23953536, -0.23755340, 1.32473326, 0.20380986, 12.84440613, -65.04708099, 49.85463333, -0.74544138, -0.15208575, -2.88511825, 0.99966079, 0.00653650, 0.00116298, 0.02518281, -0.01901346, 0.99237335, -0.76037669, 87.60000610, 1210.81738281, 39.34000015, 0.00000000
1, 0.4101, 41, 0.01641437, -0.98060685, -0.24077426, -0.36326838, 1.47955608, 0.11955798, 12.73470974, -64.56330872, 49.79753494, -0.74875981, -0.14972448, -2.87037778, 0.99966389, 0.00656478, 0.00114250, 0.02505412, -0.01904242, 0.99365348, -0.75913715, 87.60000610, 1210.81738281, 39.34000015, 0.00000000
1, 0.4201, 42, 0.01591089, -0.97855371, -0.23996507, -0.26190487, 1.33089733, 0.11777066, 12.00342369, -64.60728455, 49.74044037, -0.75110066, -0.14766993, -2.85711336, 0.99966675, 0.00658462, 0.00112483, 0.02493832, -0.01850251, 0.99165398, -0.75994575, 87.60000610, 1210.81738281, 39.34000015, 0.00000000
1, 0.4301, 43, 0.01807687, -0.97691625, -0.23931430, 0.06643242, 0.40707597, -0.03833805, 12.47876072, -64.73921967, 49.60721588, -0.75510329, -0.15550348, -2.92247891, 0.99965203, 0.00662193, 0.00118852, 0.02550903, -0.02067922, 0.99003756, -0.76059628, 87.60000610, 1210.81738281, 39.34000015, 0.00000000
1, 0.4401, 44, 0.01781169, -0.97588605, -0.23915595, 0.09896538, 0.61147130, 0.07132939, 12.99066353, -64.60728455, 49.83560181, -0.75398105, -0.15473370, -2.91638708, 0.99965346, 0.00661190, 0.00118240, 0.02545583, -0.02051699, 0.98905480, -0.76075369, 87.60000610, 1210.81738281, 39.34000015, 0.00000000
1, 0.4501, 45, 0.01901097, -0.97550571, -0.23895553, 0.27519336, 0.81727862, 0.16300860, 12.99066353, -64.60728455, 49.83560181, -0.75105578, -0.15435849, -2.90814304, 0.99965537, 0.00658621, 0.00118025, 0.02538386, -0.02170577, 0.98863751, -0.76095462, 87.60000610, 1210.81738281, 39.34000015, 0.00000000
1, 0.4601, 46, 0.01734911, -0.97686774, -0.24116801, 0.45440671, 0.74921483, 0.21376421, 11.85716152, -63.94759750, 49.34076691, -0.74634343, -0.15464590, -2.90045929, 0.99965739, 0.00654509, 0.00118424, 0.02531680, -0.02004601, 0.98992521, -0.75874317, 87.60000610, 1210.81738281, 39.34000015, 0.00000000
1, 0.4701, 47, 0.01614336, -0.97801352, -0.23918943, 0.23643643, 0.86559004, 0.33992597, 12.11311531, -65.66278839, 49.47399139, -0.74378103, -0.15587671, -2.89129877, 0.99965954, 0.00652291, 0.00119607, 0.02523693, -0.01885945, 0.99101609, -0.76072234, 87.60000610, 1210.81738281, 39.34000015, 0.00000000
1, 0.4801, 48, 0.01970627, -0.97899324, -0.24146518, 0.36329374, 0.74679214, 0.31946191, 12.11311531, -65.39891052, 49.32173538, -0.74521899, -0.15862845, -2.95030642, 0.99964631, 0.00653669, 0.00121639, 0.02575186, -0.02244553, 0.99195755, -0.75844699, 87.60000610, 1210.81738281, 39.34000015, 0.00000000
1, 0.4901, 49, 0.02295943, -0.98041260, -0.23925526, 0.40045559, 0.76594549, 0.21428107, 12.11311531, -65.39891052, 49.79753494, -0.74105287, -0.15887441, -2.94244194, 0.99964833, 0.00650032, 0.00121992, 0.02568322, -0.02573080, 0.99337447, -0.76065695, 87.60000610, 1210.81738281, 39.34000015, 0.00000000
1, 0.5001, 50, 0.02604691, -0.98006594, -0.23903444, 0.50993651, 0.61298776, 0.17557363, 12.11311531, -65.39891052, 49.79753494, -0.73581153, -0.15911964, -2.93619466, 0.99965000, 0.00645458, 0.00122358, 0.02562868, -0.02882322, 0.99294496, -0.76087880, 87.60000610, 1210.81738281, 39.34000015, 0.00000000
1, 0.5101, 51, 0.02774333, -0.98080444, -0.23699048, 0.40456691, 0.47606769, 0.10270429, 12.14968109, -64.38739014, 49.11238480, -0.73165959, -0.15898076, -2.93142867, 0.99965125, 0.00641828, 0.00122357, 0.02558705, -0.03051732, 0.99360216, -0.76292372, 87.60000610, 1210.81738281, 39.34000015, 0.00000000
1, 0.5201, 52, 0.02596589, -0.97928691, -0.23822977, 0.28074870, 0.23437095, 0.13315837, 11.34525871, -64.07953644, 49.09334946, -0.72879064, -0.15972042, -2.92889905, 0.99965197, 0.00639339, 0.00123080, 0.02556499, -0.02875276, 0.99202275, -0.76168525, 87.60000610, 1210.81738281, 39.34000015, 0.00000000
1, 0.5301, 53, 0.02579722, -0.97962940, -0.23595721, 0.08488645, 0.26913482, 0.01144037, 12.18624687, -66.23451233, 49.93076324, -0.69319600, -0.12805490, -2.99262929, 0.99964005, 0.00607635, 0.00095913, 0.02611890, -0.02844042, 0.99218637, -0.76396036, 87.60000610, 1210.81738281, 39.34000015, 0.00000000
1, 0.5401, 54, 0.02423130, -0.97994357, -0.23683806, 0.04789707, 0.28486001, 0.08219738, 12.33250427, -65.70676422, 49.35980225, -0.69264525, -0.12818122, -2.98968029, 0.99964064, 0.00607155, 0.00096051, 0.02609318, -0.02646630, 0.99203455, -0.76308632, 87.60000610, 1210.81738281, 39.34000015, 0.00000000
1, 0.5501, 55, 0.02240111, -0.97749472, -0.23724049, 0.03500927, 0.13464260, -0.18459590, 12.33250427, -65.70676422, 49.35980225, -0.69227278, -0.12606852, -2.98882270, 0.99964094, 0.00606781, 0.00094221, 0.02608559, -0.02461701, 0.98958015, -0.76268411, 87.60000610, 1210.81738281, 39.34000015, 0.00000000
1, 0.5601, 56, 0.02187761, -0.97699559, -0.23847337, 0.01864024, -0.03702580, -0.18815495, 12.58845234, -63.85964203, 49.22657394, -0.69210899, -0.12432887, -2.98962927, 0.99964082, 0.00606600, 0.00092703, 0.02609253, -0.02406050, 0.98907554, -0.76145124, 87.60000610, 1210.81738281, 39.34000015, 0.00000000
1, 0.5701, 57, 0.01936129, -0.97629797, -0.23864970, -0.12678978, 0.09821124, -0.13213180, 11.85716152, -64.16749573, 49.51205444, -0.69336551, -0.12281654, -2.98896122, 0.99964082, 0.00607661, 0.00091359, 0.02608663, -0.02151945, 0.98838675, -0.76127493, 87.60000610, 1210.81738281, 39.34000015, 0.00000000
1, 0.5801, 58, 0.02052736, -0.97498083, -0.23991978, -0.10693447, 0.04861292, -0.23870516, 11.78403568, -64.56330872, 49.18851471, -0.70103431, -0.12263430, -3.05645800, 0.99962491, 0.00614400, 0.00090663, 0.02667549, -0.02265637, 0.98713040, -0.76000410, 87.60000610, 1210.81738281, 39.34000015, 0.00000000
1, 0.5901, 59, 0.02055942, -0.97485268, -0.24028774, -0.05626492, 0.39209044, -0.23163901, 11.93029308, -65.66278839, 49.51205444, -0.70152408, -0.11945979, -3.05318117, 0.99962568, 0.00614751, 0.00087900, 0.02664674, -0.02266650, 0.98709273, -0.75963515, 87.60000610, 1210.81738281, 39.34000015, 0.00000000
1, 0.6001, 60, 0.02149624, -0.97479159, -0.24138473, 0.01556896, 0.21940613, -0.13001947, 11.93029308, -65.66278839, 49.51205444, -0.70133728, -0.11766815, -3.05136371, 0.99962616, 0.00614545, 0.00086351, 0.02663079, -0.02355942, 0.98703271, -0.75853825, 87.60000610, 1210.81738281, 39.34000015, 0.00000000
1, 0.6101, 61, 0.02050978, -0.97539556, -0.24072292, 0.06748857, 0.42566147, -0.12584206, 12.25937271, -65.44289398, 49.74044037, -0.70056599, -0.11543667, -3.04754782, 0.99962711, 0.00613817, 0.00084443, 0.02659738, -0.02254022, 0.98762971, -0.75920022, 87.60000610, 1210.81738281, 39.34000015, 0.00000000
1, 0.6201, 62, 0.01956864, -0.97672510, -0.24040429, 0.33897856, 0.20535882, -0.16646098, 12.14968109, -64.16749573, 49.94979858, -0.69715011, -0.11332577, -3.04603028, 0.99962765, 0.00610788, 0.00082689, 0.02658400, -0.02156129, 0.98891437, -0.75951940, 87.60000610, 1210.81738281, 39.34000015, 0.00000000
1, 0.6301, 63, 0.01966237, -0.97933197, -0.23931430, 0.35222736, 0.47736496, -0.00257819, 11.89372730, -64.73921967, 49.43593216, -0.69421041, -0.12053966, -3.10943127, 0.99961281, 0.00608440, 0.00088713, 0.02713742, -0.02166831, 0.99145567, -0.76061022, 87.60000610, 1210.81738281, 39.34000015, 0.00000000
1, 0.6401, 64, 0.01726251, -0.98261076, -0.23853326, 0.01041736, 0.54272991, 0.03499856, 11.93029308, -64.69524384, 49.41689682, -0.69399530, -0.11958975, -3.10407329, 0.99961412, 0.00608225, 0.00087918, 0.02709064, -0.01935780, 0.99472094, -0.76139122, 87.60000610, 1210.81738281, 39.34000015, 0.00000000
1, 0.6501, 65, 0.01683814, -0.98709357, -0.23490858, 0.02860784, 0.59518850, -0.01668916, 11.93029308, -64.69524384, 49.41689682, -0.69358361, -0.11800825, -3.09834075, 0.99961555, 0.00607825, 0.00086579, 0.02704054, -0.01890497, 0.99919963, -0.76501596, 87.60000610, 1210.81738281, 39.34000015, 0.00000000
1, 0.6601, 66, 0.01995967, -0.98604518, -0.23271319, -0.11810497, 0.76358491, 0.11034825, 12.55188751, -64.51932526, 50.27333832, -0.69458765, -0.11727332, -3.09065080, 0.99961734, 0.00608677, 0.00085955, 0.02697343, -0.02201376, 0.99815726, -0.76721138, 87.60000610, 1210.81738281, 39.34000015, 0.00000000
1, 0.6701, 67, 0.02126610, -0.98176634, -0.23414513, -0.31349844, 0.74689049, -0.01245301, 12.84440613, -65.92666626, 49.75947571, -0.69756752, -0.11536702, -3.08334804, 0.99961883, 0.00611226, 0.00084261, 0.02690965, -0.02329096, 0.99392092, -0.76577896, 87.60000610, 1210.81738281, 39.34000015, 0.00000000
1, 0.6801, 68, 0.02143483, -0.97513199, -0.23717257, -0.10131588, 0.72770071, 0.21501237, 12.69814968, -64.43137360, 49.30270386, -0.69940346, -0.11094267, -3.14342022, 0.99960452, 0.00612766, 0.00080037, 0.02743345, -0.02343057, 0.98731494, -0.76275122, 87.60000610, 1210.81738281, 39.34000015, 0.00000000
1, 0.6901, 69, 0.02179410, -0.97273248, -0.24019752, -0.06226277, 0.59305233, 0.07143553, 12.36906433, -64.07953644, 49.58818436, -0.69990045, -0.11022747, -3.13747644, 0.99960589, 0.00613178, 0.00079433, 0.02738157, -0.02371994, 0.98494494, -0.75972605, 87.60000610, 1210.81738281, 39.34000015, 0.00000000
1, 0.7001, 70, 0.02367040, -0.97150171, -0.24112202, 0.17308420, 0.51083666, -0.03648295, 12.66158390, -64.21147156, 49.70237732, -0.69806492, -0.10866700, -3.13264608, 0.99960721, 0.00611537, 0.00078141, 0.02733934, -0.02557716, 0.98370004, -0.75880176, 87.60000610, 1210.81738281, 39.34000015, 0.00000000
1, 0.7101, 71, 0.02469037, -0.97303164, -0.24176799, 0.33623582, 0.47951666, -0.14311047, 12.66158390, -64.21147156, 49.70237732, -0.69459832, -0.10613080, -3.12842441, 0.99960840, 0.00608449, 0.00076034, 0.02730235, -0.02655947, 0.98517740, -0.75815654, 87.60000610, 1210.81738281, 39.34000015, 0.00000000
1, 0.7201, 72, 0.02412049, -0.97124380, -0.24357674, 0.47724950, -0.14282838, -0.05664896, 12.73470974, -64.87116241, 49.79753494, -0.68986052, -0.10591844, -3.13006902, 0.99960828, 0.00604313, 0.00075953, 0.02731666, -0.02597092, 0.98331767, -0.75634867, 87.60000610, 1210.81738281, 39.34000015, 0.00000000
1, 0.7301, 73, 0.02423494, -0.97270823, -0.24340136, 0.54796809, -0.00475688, -0.07154086, 12.03998470, -66.45441437, 49.56915665, -0.71156085, -0.09905404, -3.19542480, 0.99959147, 0.00623118, 0.00069093, 0.02788654, -0.02605025, 0.98480129, -0.75652379, 87.60000610, 1210.81738281, 39.34000015, 0.00000000
1, 0.7401, 74, 0.02212601, -0.97435385, -0.24346697, 0.43997994, 0.01126522, -0.05329529, 12.00342369, -65.53085327, 49.68334579, -0.70716113, -0.09852099, -3.19554377, 0.99959165, 0.00619267, 0.00068734, 0.02788752, -0.02385098, 0.98672736, -0.75645506, 87.60000610, 1210.81738281, 39.34000015, 0.00000000
1, 0.7501, 75, 0.02113367, -0.97688830, -0.24217294, 0.42329839, -0.12609765, -0.05613216, 12.29593849, -66.23451233, 49.79753494, -0.70295995, -0.09827005, -3.19700336, 0.99959159, 0.00615598, 0.00068609, 0.02790022, -0.02285459, 0.98918688, -0.75774997, 87.60000610, 1210.81738281, 39.34000015, 0.00000000
1, 0.7601, 76, 0.02151642, -0.97959667, -0.24212664, 0.31702414, -0.05603828, -0.19496052, 12.29593849, -66.23451233, 49.79753494, -0.69982022, -0.09650476, -3.19808245, 0.99959147, 0.00612816, 0.00067140, 0.02790951, -0.02321466, 0.99182487, -0.75779712, 87.60000610, 1210.81738281, 39.34000015, 0.00000000
1, 0.7701, 77, 0.02013462, -0.98082119, -0.24113515, 0.26454943, -0.22827461, -0.18084270, 12.29593849, -65.44289398, 49.53108597, -0.69724494, -0.09529025, -3.20078683, 0.99959099, 0.00610542, 0.00066129, 0.02793303, -0.02180553, 0.99300659, -0.75878918, 87.60000610, 1210.81738281, 39.34000015, 0.00000000
1, 0.7801, 78, 0.01912814, -0.98017609, -0.24043386, 0.13895842, -0.19466729, -0.19733013, 12.11311531, -64.25545502, 49.83560181, -0.69533950, -0.10847804, -3.27179575, 0.99957347, 0.00609249, 0.00077302, 0.02855312, -0.02083965, 0.99233109, -0.75949085, 87.60000610, 1210.81738281, 39.34000015, 0.00000000
1, 0.7901, 79, 0.01869056, -0.98189044, -0.24038938, 0.15645877, -0.28172320, -0.11132245, 12.03998470, -64.38739014, 49.45495987, -0.69384408, -0.10807115, -3.27484751, 0.99957275, 0.00607937, 0.00076968, 0.02857971, -0.02057665, 0.99401164, -0.75953543, 87.60000610, 1210.81738281, 39.34000015, 0.00000000
1, 0.8001, 80, 0.02004384, -0.97987223, -0.23949862, 0.13802592, -0.33446845, -0.04206169, 12.44219589, -65.97064209, 49.51205444, -0.69253045, -0.10846379, -3.27821469, 0.99957204, 0.00606803, 0.00077325, 0.02860909, -0.02193252, 0.99196672, -0.76042640, 87.60000610, 1210.81738281, 39.34000015, 0.00000000
1, 0.8101, 81, 0.01924717, -0.97911119, -0.23820958, -0.08025686, -0.18378757, 0.08482223, 12.44219589, -65.97064209, 49.51205444, -0.69337285, -0.10972510, -3.27978158, 0.99957156, 0.00607570, 0.00078396, 0.02862283, -0.02115399, 0.99120313, -0.76171553, 87.60000610, 1210.81738281, 39.34000015, 0.00000000
1, 0.8201, 82, 0.02119425, -0.97723508, -0.24137479, -0.21699069, -0.27289805, 0.23168431, 12.55188751, -65.17901611, 49.41689682, -0.69557828, -0.11262719, -3.28182268, 0.99957097, 0.00609568, 0.00080862, 0.02864081, -0.02313946, 0.98935515, -0.75854993, 87.60000610, 1210.81738281, 39.34000015, 0.00000000
1, 0.8301, 83, 0.02094186, -0.97731066, -0.24067040, -0.21253619, -0.19558455, 0.05421704, 11.71090508, -65.04708099, 49.22657394, -0.70047581, -0.12025154, -3.35091424, 0.99955308, 0.00614083, 0.00087020, 0.02924392, -0.02294393, 0.98948824, -0.75925338, 87.60000610, 1210.81738281, 39.34000015, 0.00000000
1, 0.8401, 84, 0.02145801, -0.97656828, -0.24087483, -0.19798346, -0.14742418, 0.26612476, 12.51532650, -64.73921967, 49.22657394, -0.70246667, -0.12318584, -3.35165620, 0.99955279, 0.00615895, 0.00089525, 0.02925056, -0.02359011, 0.98881328, -0.75904793, 87.60000610, 1210.81738281, 39.34000015, 0.00000000
1, 0.8501, 85, 0.02217552, -0.97613877, -0.24234079, -0.26969343, -0.09595548, 0.23226966, 12.62501812, -65.97064209, 49.37883377, -0.70518118, -0.12566519, -3.35196376, 0.99955255, 0.00618326, 0.00091616, 0.02925339, -0.02435058, 0.98842877, -0.75758135, 87.60000610, 1210.81738281, 39.34000015, 0.00000000
1, 0.8601, 86, 0.02446854, -0.97638136, -0.24222519, -0.28750631, 0.02540598, 0.14698404, 12.62501812, -65.97064209, 49.37883377, -0.70803797, -0.12703416, -3.35130644, 0.99955249, 0.00620853, 0.00092741, 0.02924776, -0.02667680, 0.98871601, -0.75769627, 87.60000610, 1210.81738281, 39.34000015, 0.00000000
1, 0.8701, 87, 0.02301365, -0.97801429, -0.24643730, -0.46571222, -0.04403887, 0.11091276, 12.22280693, -65.75074005, 49.53108597, -0.71269727, -0.12821352, -3.35134888, 0.99955225, 0.00624947, 0.00093651, 0.02924823, -0.02524034, 0.99042231, -0.75348330, 87.60000610, 1210.81738281, 39.34000015, 0.00000000
1, 0.8801, 88, 0.02358822, -0.97746587, -0.24587324, -0.57212126, -0.14751308, 0.09148460, 11.52808189, -64.21147156, 49.64528275, -0.73633671, -0.12229388, -3.41927123, 0.99953347, 0.00645468, 0.00087501, 0.02984056, -0.02580638, 0.99004656, -0.75404513, 87.60000610, 1210.81738281, 39.34000015, 0.00000000
1, 0.8901, 89, 0.02216101, -0.97809041, -0.24429336, -0.48273849, -0.25115901, 0.17692363, 11.52808189, -64.78320312, 49.35980225, -0.74120790, -0.12460885, -3.42117548, 0.99953270, 0.00649779, 0.00089383, 0.02985733, -0.02432035, 0.99099278, -0.75562108, 87.60000610, 1210.81738281, 39.34000015, 0.00000000
1, 0.9001, 90, 0.02428849, -0.98074591, -0.24207383, -0.62492454, -0.33747530, 0.14038740, 12.51532650, -65.48686981, 49.74044037, -0.74751633, -0.12677456, -3.42396116, 0.99953151, 0.00655340, 0.00091091, 0.02988180, -0.02648806, 0.99375045, -0.75783920, 87.60000610, 1210.81738281, 39.34000015, 0.00000000
1, 0.9101, 91, 0.02391987, -0.98062074, -0.24263079, -0.64405251, -0.28701729, 0.19424167, 12.51532650, -65.48686981, 49.74044037, -0.75400442, -0.12934211, -3.42612505, 0.99953055, 0.00661068, 0.00093149, 0.02990087, -0.02616480, 0.99373227, -0.75728071, 87.60000610, 1210.81738281, 39.34000015, 0.00000000
1, 0.9201, 92, 0.02217380, -0.97887748, -0.24069896, -0.65925974, -0.10804894, 0.04643774, 12.25937271, -64.21147156, 49.87366486, -0.76062465, -0.13004942, -3.42689657, 0.99952996, 0.00666861, 0.00093589, 0.02990770, -0.02443854, 0.99211395, -0.75921088, 87.60000610, 1210.81738281, 39.34000015, 0.00000000
1, 0.9301, 93, 0.02056545, -0.97679216, -0.24104002, -0.63923997, -0.15493731, 0.08713908, 11.78403568, -64.95912170, 49.74044037, -0.77055877, -0.13513426, -3.49537611, 0.99951136, 0.00675717, 0.00097361, 0.03050539, -0.02286098, 0.99015403, -0.75886810, 87.60000610, 1210.81738281, 39.34000015, 0.00000000
1, 0.9401, 94, 0.02193518, -0.97637993, -0.24274515, -0.54937202, -0.25801018, 0.13743202, 12.44219589, -67.81777191, 49.28366852, -0.77610046, -0.13708833, -3.49742746, 0.99951041, 0.00680605, 0.00098906, 0.03052344, -0.02431418, 0.98988998, -0.75716072, 87.60000610, 1210.81738281, 39.34000015, 0.00000000
1, 0.9501, 95, 0.02235997, -0.97573030, -0.24295123, -0.46207461, -0.05204657, 0.17665169, 12.40563011, -65.79473114, 49.89269638, -0.78073299, -0.13892494, -3.49739742, 0.99951017, 0.00684694, 0.00100385, 0.03052333, -0.02477037, 0.98932195, -0.75695348, 87.60000610, 1210.81738281, 39.34000015, 0.00000000
1, 0.9601, 96, 0.02299133, -0.97613698, -0.24365491, -0.62494606, -0.15909488, 0.35068256, 12.69814968, -64.91514587, 50.15914154, -0.78699410, -0.14270744, -3.49794269, 0.99950963, 0.00690257, 0.00103514, 0.03052837, -0.02545743, 0.98982930, -0.75624830, 87.60000610, 1210.81738281, 39.34000015, 0.00000000
1, 0.9701, 97, 0.02424225, -0.97650188, -0.24450538, -0.62402982, -0.07132515, 0.22947691, 12.69814968, -64.91514587, 50.15914154, -0.79323274, -0.14510302, -3.49794340, 0.99950922, 0.00695762, 0.00105437, 0.03052857, -0.02675990, 0.99030393, -0.75539619, 87.60000610, 1210.81738281, 39.34000015, 0.00000000
1, 0.9801, 98, 0.02403552, -0.97500646, -0.24480461, -0.57000893, -0.12264796, 0.24581090, 11.96685791, -64.51932526, 49.77849960, -0.80990022, -0.14048380, -3.56527662, 0.99949014, 0.00710236, 0.00100547, 0.03111574, -0.02656887, 0.98896301, -0.75509483, 87.60000610, 1210.81738281, 39.34000015, 0.00000000
1, 0.9901, 99, 0.02533261, -0.97565103, -0.24328741, -0.46274826, -0.13952973, 0.28028437, 12.22280693, -63.81566238, 49.66431046, -0.81454498, -0.14353462, -3.56584167, 0.99948967, 0.00714371, 0.00103078, 0.03112090, -0.02781768, 0.98983502, -0.75660896, 87.60000610, 1210.81738281, 39.34000015, 0.00000000
1, 1.0001, 100, 0.02524461, -0.97658497, -0.24212587, -0.55006719, -0.15480699, 0.12202562, 12.77127552, -64.65126801, 49.93076324, -0.82007515, -0.14508766, -3.56692505, 0.99948901, 0.00719237, 0.00104276, 0.03113049, -0.02777127, 0.99085999, -0.75776905, 87.60000610, 1210.81738281, 39.34000015, 0.00000000
1, 1.0101, 101, 0.02469955, -0.97732395, -0.24216788, -0.40566087, -0.20456670, 0.08538097, 11.85716152, -66.27849579, 49.96882629, -0.82415920, -0.14641002, -3.56860304, 0.99948823, 0.00722837, 0.00105308, 0.03114525, -0.02724941, 0.99168038, -0.75772583, 87.60000610, 1210.81738281, 39.34000015, 0.00000000
1, 1.0201, 102, 0.02495657, -0.97623044, -0.24166495, -0.45469418, -0.10860098, 0.05486405, 11.85716152, -66.27849579, 49.96882629, -0.82872301, -0.14720367, -3.56940532, 0.99948776, 0.00726840, 0.00105871, 0.03115234, -0.02751993, 0.99066675, -0.75822759, 87.60000610, 1210.81738281, 39.34000015, 0.00000000
1, 1.0301, 103, 0.02221547, -0.97658724, -0.23892827, -0.33286873, 0.02531227, 0.06472288, 11.93029308, -64.38739014, 49.94979858, -0.81605566, -0.14635818, -3.63750935, 0.99946982, 0.00715831, 0.00105052, 0.03174618, -0.02478617, 0.99101478, -0.76096433, 87.60000610, 1210.81738281, 39.34000015, 0.00000000
1, 1.0401, 104, 0.02219871, -0.97630984, -0.24111104, -0.36689422, -0.04214744, -0.02448284, 11.96685791, -64.56330872, 49.81657028, -0.81974053, -0.14621644, -3.63788939, 0.99946952, 0.00719041, 0.00104824, 0.03174952, -0.02474917, 0.99058926, -0.75878382, 87.60000610, 1210.81738281, 39.34000015, 0.00000000
1, 1.0501, 105, 0.02205639, -0.97638291, -0.24243616, -0.29733434, 0.00786776, 0.09940401, 12.22280693, -64.56330872, 50.34946442, -0.82270300, -0.14716564, -3.63750339, 0.99946934, 0.00721651, 0.00105572, 0.03174623, -0.02461417, 0.99072182, -0.75745773, 87.60000610, 1210.81738281, 39.34000015, 0.00000000
1, 1.0601, 106, 0.02156120, -0.97909445, -0.24104565, -0.19087119, 0.02471845, 0.16974577, 12.40563011, -63.72769928, 50.02592087, -0.82458943, -0.14875464, -3.63681364, 0.99946946, 0.00723340, 0.00106910, 0.03174034, -0.02415003, 0.99347502, -0.75884759, 87.60000610, 1210.81738281, 39.34000015, 0.00000000
1, 1.0701, 107, 0.02282004, -0.97969556, -0.24239002, -0.17481492, 0.23069240, 0.17402695, 12.40563011, -63.72769928, 50.02592087, -0.82628518, -0.14989148, -3.63410759, 0.99947011, 0.00724848, 0.00107872, 0.03171682, -0.02542716, 0.99410403, -0.75750279, 87.60000610, 1210.81738281, 39.34000015, 0.00000000
1, 1.0801, 108, 0.02385304, -0.97798973, -0.24328956, -0.31951743, 0.36678907, 0.17733099, 11.93029308, -65.22299194, 49.30270386, -0.83639246, -0.14238031, -3.69614482, 0.99945223, 0.00733510, 0.00100644, 0.03225753, -0.02644112, 0.99247390, -0.75660217, 87.60000610, 1210.81738281, 39.34000015, 0.00000000
1, 1.0901, 109, 0.02227232, -0.97748435, -0.24394934, -0.38996109, 0.33306700, 0.10652435, 12.33250427, -63.81566238, 49.58818436, -0.84021282, -0.14260603, -3.69256163, 0.99945295, 0.00736845, 0.00100756, 0.03222632, -0.02475886, 0.99212360, -0.75594044, 87.60000610, 1210.81738281, 39.34000015, 0.00000000
1, 1.1001, 110, 0.02119616, -0.97522283, -0.24532947, -0.26534009, 0.29831353, 0.19330393, 12.18624687, -64.47534943, 49.72140503, -0.84279990, -0.14376268, -3.68912721, 0.99945372, 0.00739131, 0.00101715, 0.03219646, -0.02369886, 0.98991501, -0.75455940, 87.60000610, 1210.81738281, 39.34000015, 0.00000000
1, 1.1101, 111, 0.02006187, -0.97518343, -0.24303395, -0.35562307, 0.36622122, 0.19500786, 12.11311531, -66.71829224, 49.96882629, -0.84626967, -0.14477217, -3.68502235, 0.99945462, 0.00742182, 0.00102524, 0.03216076, -0.02258220, 0.98993230, -0.75685418, 87.60000610, 1210.81738281, 39.34000015, 0.00000000
1, 1.1201, 112, 0.02152335, -0.97357434, -0.24319105, -0.19576910, 0.64307791, 0.13002607, 12.11311531, -66.71829224, 49.96882629, -0.84808928, -0.14448072, -3.67842150, 0.99945641, 0.00743755, 0.00102262, 0.03210318, -0.02404801, 0.98836452, -0.75669634, 87.60000610, 1210.81738281, 39.34000015, 0.00000000
1, 1.1301, 113, 0.02278814, -0.97340602, -0.24302219, 0.18781705, 0.57623446, 0.07141643, 12.18624687, -66.93818665, 49.60721588, -0.85560340, -0.13925615, -3.73721409, 0.99943936, 0.00750213, 0.00097109, 0.03261569, -0.02527914, 0.98823053, -0.75686479, 87.60000610, 1210.81738281, 39.34000015, 0.00000000
1, 1.1401, 114, 0.02200496, -0.97258800, -0.24342486, 0.41893369, 0.66239452, 0.16041219, 12.73470974, -64.69524384, 50.04495239, -0.85126680, -0.13922700, -3.73050380, 0.99944162, 0.00746424, 0.00097251, 0.03255713, -0.02443989, 0.98747176, -0.75646150, 87.60000610, 1210.81738281, 39.34000015, 0.00000000
1, 1.1501, 115, 0.02255144, -0.97666311, -0.24554037, 0.31136039, 0.71358174, 0.12666090, 12.14968109, -65.97064209, 49.60721588, -0.84799188, -0.13873091, -3.72335219, 0.99944377, 0.00743547, 0.00096958, 0.03249469, -0.02497505, 0.99148411, -0.75434691, 87.60000610, 1210.81738281, 39.34000015, 0.00000000
1, 1.1601, 116, 0.02416120, -0.97638685, -0.24610540, 0.40001079, 0.85179389, 0.11171706, 12.00342369, -65.17901611, 49.64528275, -0.84380656, -0.13777088, -3.71491647, 0.99944645, 0.00739863, 0.00096294, 0.03242102, -0.02657501, 0.99114364, -0.75378275, 87.60000610, 1210.81738281, 39.34000015, 0.00000000
1, 1.1701, 117, 0.02283556, -0.97624034, -0.24698035, 0.61432207, 0.92180681, 0.13011155, 12.00342369, -65.17901611, 49.64528275, -0.83746922, -0.13682321, -3.70580626, 0.99944949, 0.00734301, 0.00095705, 0.03234145, -0.02523041, 0.99090135, -0.75290930, 87.60000610, 1210.81738281, 39.34000015, 0.00000000
1, 1.1801, 118, 0.02350263, -0.97638160, -0.24509721, 0.59722054, 0.99199647, 0.02616969, 11.60121250, -64.43137360, 49.77849960, -0.83857018, -0.13088948, -3.76207852, 0.99943352, 0.00735138, 0.00090138, 0.03283188, -0.02585219, 0.99095809, -0.75479376, 87.60000610, 1210.81738281, 39.34000015, 0.00000000
1, 1.1901, 119, 0.02252383, -0.97631192, -0.24658428, 0.65192056, 0.78543907, 0.09197292, 12.22280693, -65.00309753, 50.12108231, -0.83187908, -0.12989236, -3.75439310, 0.99943614, 0.00729268, 0.00089509, 0.03276473, -0.02479463, 0.99087226, -0.75330716, 87.60000610, 1210.81738281, 39.34000015, 0.00000000
1, 1.2001, 120, 0.02116354, -0.97604728, -0.24724337, 0.57830274, 0.93867815, 0.13057646, 12.47876072, -65.61880493, 49.53108597, -0.82589787, -0.12890886, -3.74510884, 0.99943924, 0.00724016, 0.00088880, 0.03268364, -0.02341965, 0.99049628, -0.75264966, 87.60000610, 1210.81738281, 39.34000015, 0.00000000
1, 1.2101, 121, 0.02221936, -0.97558528, -0.24852079, 0.61336821, 0.97269195, 0.16634087, 12.00342369, -66.71829224, 49.56915665, -0.81955332, -0.12819047, -3.73541093, 0.99944234, 0.00718454, 0.00088496, 0.03259897, -0.02445868, 0.98992586, -0.75137389, 87.60000610, 1210.81738281, 39.34000015, 0.00000000
1, 1.2201, 122, 0.02442955, -0.97756803, -0.24635708, 0.54398608, 0.71483761, 0.16113210, 12.00342369, -66.71829224, 49.56915665, -0.81395477, -0.12804323, -3.72822428, 0.99944478, 0.00713562, 0.00088571, 0.03253624, -0.02665930, 0.99181139, -0.75353897, 87.60000610, 1210.81738281, 39.34000015, 0.00000000
1, 1.2301, 123, 0.02523435, -0.97519672, -0.24713127, 0.53231412, 0.64942843, 0.24576150, 12.25937271, -64.51932526, 49.87366486, -0.82034057, -0.12133567, -3.78778052, 0.99942732, 0.00718984, 0.00082166, 0.03305530, -0.02744686, 0.98939627, -0.75276542, 87.60000610, 1210.81738281, 39.34000015, 0.00000000
1, 1.2401, 124, 0.02691155, -0.97525448, -0.24772874, 0.29146433, 0.45489040, 0.23004870, 12.40563011, -65.00309753, 49.45495987, -0.81731856, -0.12248001, -3.78288841, 0.99942899, 0.00716377, 0.00083282, 0.03301268, -0.02904058, 0.98953509, -0.75216705, 87.60000610, 1210.81738281, 39.34000015, 0.00000000
1, 1.2501, 125, 0.02620465, -0.97418392, -0.24665189, 0.47221878, 0.40598515, 0.15815426, 11.85716152, -65.00309753, 49.60721588, -0.81249362, -0.12304666, -3.77868557, 0.99943042, 0.00712182, 0.00083941, 0.03297603, -0.02835184, 0.98839134, -0.75324488, 87.60000610, 1210.81738281, 39.34000015, 0.00000000
1, 1.2601, 126, 0.02455342, -0.97338194, -0.24684878, 0.54559410, 0.25245947, 0.13712375, 12.29593849, -65.61880493, 49.85463333, -0.80698401, -0.12378087, -3.77604747, 0.99943161, 0.00707396, 0.00084756, 0.03295302, -0.02670644, 0.98750317, -0.75304919, 87.60000610, 1210.81738281, 39.34000015, 0.00000000
1, 1.2701, 127, 0.01962144, -0.97420400, -0.24764699, 0.47291389, 0.30278197, 0.17356071, 12.99066353, -65.44289398, 49.94979858, -0.80218291, -0.12473977, -3.77280521, 0.99943274, 0.00703234, 0.00085751, 0.03292477, -0.02179475, 0.98822904, -0.75225222, 87.60000610, 1210.81738281, 39.34000015, 0.00000000
1, 1.2801, 128, 0.02075633, -0.97628230, -0.24623415, 0.52724236, 0.45987141, 0.03607061, 12.99066353, -65.44289398, 49.94979858, -0.80921811, -0.12914722, -3.83446360, 0.99941444, 0.00709545, 0.00089011, 0.03346285, -0.02294710, 0.99027729, -0.75366557, 87.60000610, 1210.81738281, 39.34000015, 0.00000000
1, 1.2901, 129, 0.02169205, -0.97694504, -0.24585946, 0.52897739, 0.32322228, -0.00196414, 12.36906433, -65.70676422, 49.83560181, -0.80385834, -0.12835662, -3.83147359, 0.99941564, 0.00704845, 0.00088496, 0.03343668, -0.02393877, 0.99100965, -0.75403911, 87.60000610, 1210.81738281, 39.34000015, 0.00000000
1, 1.3001, 130, 0.02142204, -0.97687048, -0.24700031, 0.45607108, 0.42528969, 0.01798308, 12.00342369, -66.19053650, 49.41689682, -0.79921216, -0.12750861, -3.82740998, 0.99941707, 0.00700765, 0.00087917, 0.03340116, -0.02364990, 0.99085075, -0.75289947, 87.60000610, 1210.81738281, 39.34000015, 0.00000000
1, 1.3101, 131, 0.02463446, -0.97724169, -0.24558330, 0.43970215, 0.25362128, 0.01442402, 12.36906433, -64.82717896, 49.32173538, -0.79477143, -0.12705061, -3.82502508, 0.99941802, 0.00696876, 0.00087662, 0.03338030, -0.02685802, 0.99113572, -0.75431770, 87.60000610, 1210.81738281, 39.34000015, 0.00000000
1, 1.3201, 132, 0.02586970, -0.97600400, -0.24756089, 0.38604724, 0.18401499, 0.04828146, 11.82060146, -64.29943085, 49.96882629, -0.79085547, -0.12708968, -3.82321429, 0.99941885, 0.00693461, 0.00087821, 0.03336447, -0.02808932, 0.98982280, -0.75234115, 87.60000610, 1210.81738281, 39.34000015, 0.00000000
1, 1.3301, 133, 0.02471050, -0.97388226, -0.24983519, 0.31202567, -0.23406321, -0.06547672, 11.82060146, -64.29943085, 49.96882629, -0.81791127, -0.11359637, -3.89144015, 0.99939734, 0.00716710, 0.00074838, 0.03395888, -0.02686914, 0.98776913, -0.75006604, 87.60000610, 1210.81738281, 39.34000015, 0.00000000
1, 1.3401, 134, 0.02483369, -0.97425812, -0.24906734, 0.09120527, -0.50118434, -0.03498557, 12.11311531, -66.67430878, 49.77849960, -0.81709689, -0.11446907, -3.89642406, 0.99939585, 0.00716029, 0.00075592, 0.03400239, -0.02682510, 0.98852402, -0.75082898, 87.60000610, 1210.81738281, 39.34000015, 0.00000000
1, 1.3501, 135, 0.02539797, -0.97763562, -0.25093150, -0.01480547, -0.62152469, -0.07234781, 12.14968109, -65.61880493, 49.85463333, -0.81737792, -0.11526274, -3.90262747, 0.99939400, 0.00716301, 0.00076237, 0.03405654, -0.02740299, 0.99189585, -0.74896479, 87.60000610, 1210.81738281, 39.34000015, 0.00000000
1, 1.3601, 136, 0.02697367, -0.97497547, -0.25191057, 0.21986750, -0.79122353, -0.07663356, 12.58845234, -65.22299194, 49.77849960, -0.81534016, -0.11641704, -3.91054511, 0.99939173, 0.00714564, 0.00077255, 0.03412565, -0.02899712, 0.98921835, -0.74798596, 87.60000610, 1210.81738281, 39.34000015, 0.00000000
1, 1.3701, 137, 0.02570472, -0.97370309, -0.25062302, 0.15450530, -1.11367726, -0.32930914, 12.11311531, -65.75074005, 49.87366486, -0.81405288, -0.11589086, -3.92217517, 0.99938834, 0.00713433, 0.00076762, 0.03422704, -0.02772984, 0.98792082, -0.74927390, 87.60000610, 1210.81738281, 39.34000015, 0.00000000
1, 1.3801, 138, 0.02378808, -0.97246760, -0.24952745, 0.18816948, -1.16800618, -0.13719292, 12.11311531, -65.75074005, 49.87366486, -0.82435983, -0.11358638, -3.99871898, 0.99936461, 0.00722403, 0.00073962, 0.03489452, -0.02581129, 0.98670816, -0.75036913, 87.60000610, 1210.81738281, 39.34000015, 0.00000000
1, 1.3901, 139, 0.02310707, -0.97508323, -0.24466145, 0.06291234, -1.35939085, -0.03536341, 11.82060146, -64.56330872, 50.04495239, -0.82402605, -0.11650747, -4.01201868, 0.99936056, 0.00722210, 0.00076436, 0.03501069, -0.02511920, 0.98946524, -0.75523311, 87.60000610, 1210.81738281, 39.34000015, 0.00000000
1, 1.4001, 140, 0.02400976, -0.98109573, -0.24140248, -0.22198281, -1.39394152, -0.15826620, 11.93029308, -65.70676422, 50.33043289, -0.82654357, -0.11832589, -4.02587175, 0.99935615, 0.00724470, 0.00077857, 0.03513163, -0.02606364, 0.99550295, -0.75849164, 87.60000610, 1210.81738281, 39.34000015, 0.00000000
1, 1.4101, 141, 0.02376567, -0.98219132, -0.23978227, -0.11404318, -1.56605780, -0.07432351, 12.25937271, -64.87116241, 49.96882629, -0.82801914, -0.12136407, -4.04122305, 0.99935138, 0.00725861, 0.00080364, 0.03526571, -0.02586203, 0.99663198, -0.76011127, 87.60000610, 1210.81738281, 39.34000015, 0.00000000
1, 1.4201, 142, 0.02553970, -0.98293555, -0.24321429, -0.23600797, -1.82290137, -0.16724168, 12.44219589, -65.44289398, 49.94979858, -0.83076876, -0.12411962, -4.05925846, 0.99934560, 0.00728357, 0.00082568, 0.03542319, -0.02768656, 0.99741769, -0.75667858, 87.60000610, 1210.81738281, 39.34000015, 0.00000000
1, 1.4301, 143, 0.02286355, -0.98140246, -0.24434020, -0.16368896, -1.99501276, -0.10076813, 12.44219589, -65.44289398, 49.94979858, -0.83821768, -0.12642500, -4.14361048, 0.99931866, 0.00734986, 0.00083807, 0.03615901, -0.02505924, 0.99594712, -0.75555170, 87.60000610, 1210.81738281, 39.34000015, 0.00000000
1, 1.4401, 144, 0.02271429, -0.97661400, -0.24658436, -0.16266516, -2.08048987, -0.12014665, 12.07655048, -65.22299194, 49.74044037, -0.84029573, -0.13025975, -4.16403675, 0.99931204, 0.00736935, 0.00086954, 0.03633740, -0.02496691, 0.99125761, -0.75330591, 87.60000610, 1210.81738281, 39.34000015, 0.00000000
1, 1.4501, 145, 0.02283700, -0.97041661, -0.24703088, 0.03506715, -2.07836938, -0.15586367, 11.85716152, -65.09105682, 49.72140503, -0.84039539, -0.13374594, -4.18460512, 0.99930543, 0.00737148, 0.00089859, 0.03651699, -0.02515346, 0.98508835, -0.75285882, 87.60000610, 1210.81738281, 39.34000015, 0.00000000
1, 1.4601, 146, 0.02262052, -0.96938378, -0.24896425, 0.07233164, -1.98974526, -0.31231931, 12.07655048, -64.91514587, 50.08301544, -0.84011722, -0.13551013, -4.20468092, 0.99929905, 0.00736978, 0.00091277, 0.03669217, -0.02497624, 0.98404640, -0.75092554, 87.60000610, 1210.81738281, 39.34000015, 0.00000000
1, 1.4701, 147, 0.02296096, -0.97047722, -0.24693766, 0.28766680, -2.00520921, -0.31330335, 12.22280693, -66.71829224, 50.06398773, -0.83768123, -0.13729572, -4.22496700, 0.99929273, 0.00734927, 0.00092782, 0.03686917, -0.02534396, 0.98511040, -0.75295246, 87.60000610, 1210.81738281, 39.34000015, 0.00000000
1, 1.4801, 148, 0.01998849, -0.97313458, -0.24548152, 0.19976029, -2.09053087, -0.38514134, 12.22280693, -66.71829224, 50.06398773, -0.84214413, -0.13883598, -4.30911922, 0.99926507, 0.00738937, 0.00093439, 0.03760314, -0.02240054, 0.98776400, -0.75440860, 87.60000610, 1210.81738281, 39.34000015, 0.00000000
1, 1.4901, 149, 0.02035885, -0.97608602, -0.24352945, 0.34118146, -1.86641920, -0.38086239, 12.11311531, -66.85022736, 50.06398773, -0.83914286, -0.13963290, -4.32823753, 0.99925888, 0.00736362, 0.00094110, 0.03776988, -0.02278983, 0.99076140, -0.75635993, 87.60000610, 1210.81738281, 39.34000015, 0.00000000
1, 1.5001, 150, 0.01970665, -0.97761154, -0.24407057, 0.39466339, -1.83169174, -0.38029593, 12.80784130, -65.97064209, 50.21624374, -0.83560771, -0.14034398, -4.34702587, 0.99925292, 0.00733318, 0.00094726, 0.03793373, -0.02215003, 0.99221814, -0.75581974, 87.60000610, 1210.81738281, 39.34000015, 0.00000000
1, 1.5101, 151, 0.01971043, -0.98012006, -0.24350393, 0.45027959, -1.95047939, -0.43569839, 12.40563011, -65.13504028, 49.87366486, -0.83152789, -0.14080648, -4.36710215, 0.99924648, 0.00729792, 0.00095137, 0.03810880, -0.02216400, 0.99466109, -0.75638735, 87.60000610, 1210.81738281, 39.34000015, 0.00000000
1, 1.5201, 152, 0.02037304, -0.98077691, -0.24377832, 0.44915330, -1.93447280, -0.36504516, 12.40563011, -65.48686981, 49.70237732, -0.82745886, -0.14191617, -4.38686514, 0.99924016, 0.00726298, 0.00096115, 0.03828117, -0.02283997, 0.99524522, -0.75611401, 87.60000610, 1210.81738281, 39.34000015, 0.00000000
1, 1.5301, 153, 0.01953882, -0.97785825, -0.24207424, 0.26596883, -1.64571536, -0.27052239, 13.50256634, -65.70676422, 50.06398773, -0.83062053, -0.14357886, -4.46761131, 0.99921274, 0.00729179, 0.00096945, 0.03898540, -0.02203115, 0.99230182, -0.75781840, 87.60000610, 1210.81738281, 39.34000015, 0.00000000
1, 1.5401, 154, 0.01729555, -0.97631943, -0.24316460, 0.26437357, -1.57825053, -0.19878595, 13.50256634, -65.70676422, 50.06398773, -0.82831192, -0.14543888, -4.48347616, 0.99920750, 0.00727243, 0.00098545, 0.03912384, -0.01982173, 0.99079031, -0.75672746, 87.60000610, 1210.81738281, 39.34000015, 0.00000000
1, 1.5501, 155, 0.01964337, -0.97465503, -0.24211167, 0.17518462, -1.63041222, -0.19960959, 12.51532650, -65.66278839, 50.14011383, -0.82692093, -0.14742495, -4.49981070, 0.99920189, 0.00726112, 0.00100221, 0.03926637, -0.02220402, 0.98909932, -0.75778073, 87.60000610, 1210.81738281, 39.34000015, 0.00000000
1, 1.5601, 156, 0.01811090, -0.97562313, -0.24207380, 0.33292598, -1.39072633, -0.08958333, 12.18624687, -65.44289398, 49.94979858, -0.82389647, -0.14989011, -4.51360798, 0.99919736, 0.00723571, 0.00102387, 0.03938681, -0.02071455, 0.99002331, -0.75781912, 87.60000610, 1210.81738281, 39.34000015, 0.00000000
1, 1.5701, 157, 0.01860418, -0.97650295, -0.24385929, 0.13566248, -1.44430542, -0.05494950, 12.47876072, -65.53085327, 49.66431046, -0.82284147, -0.15282428, -4.52778912, 0.99919248, 0.00722765, 0.00104892, 0.03951064, -0.02125250, 0.99086511, -0.75603408, 87.60000610, 1210.81738281, 39.34000015, 0.00000000
1, 1.5801, 158, 0.01840381, -0.97779369, -0.24337845, 0.11899730, -1.52963674, -0.09184914, 12.22280693, -64.69524384, 49.66431046, -0.82616282, -0.15787657, -4.60721540, 0.99916464, 0.00725911, 0.00108680, 0.04020354, -0.02111090, 0.99217004, -0.75651449, 87.60000610, 1210.81738281, 39.34000015, 0.00000000
1, 1.5901, 159, 0.02098187, -0.97584933, -0.24444401, 0.24411948, -1.51178575, -0.07427837, 12.22280693, -64.69524384, 49.66431046, -0.82402974, -0.16079333, -4.62213707, 0.99915940, 0.00724168, 0.00111203, 0.04033380, -0.02377507, 0.99024642, -0.75544840, 87.60000610, 1210.81738281, 39.34000015, 0.00000000
1, 1.6001, 160, 0.02080676, -0.97322232, -0.24691933, 0.31813073, -1.43917346, -0.28391805, 12.36906433, -64.78320312, 49.89269638, -0.82115883, -0.16149822, -4.63685703, 0.99915439, 0.00721704, 0.00111826, 0.04046217, -0.02362448, 0.98757958, -0.75297368, 87.60000610, 1210.81738281, 39.34000015, 0.00000000
1, 1.6101, 161, 0.01995984, -0.97313070, -0.24575873, 0.38880089, -1.45719612, -0.19662158, 12.40563011, -66.01461792, 49.94979858, -0.81758046, -0.16310370, -4.65156317, 0.99914944, 0.00718655, 0.00113260, 0.04059046, -0.02279632, 0.98742074, -0.75413513, 87.60000610, 1210.81738281, 39.34000015, 0.00000000
1, 1.6201, 162, 0.01846305, -0.97481126, -0.24495639, 0.21078391, -1.43973076, -0.30117959, 12.62501812, -67.11410522, 49.85463333, -0.81578308, -0.16363722, -4.66630697, 0.99914426, 0.00717121, 0.00113697, 0.04071903, -0.02131421, 0.98905820, -0.75493813, 87.60000610, 1210.81738281, 39.34000015, 0.00000000
1, 1.6301, 163, 0.01787317, -0.97919601, -0.24388659, 0.08314524, -1.23516917, -0.27891007, 12.36906433, -66.36645508, 49.98785782, -0.82014424, -0.16979204, -4.74235153, 0.99911666, 0.00721221, 0.00118430, 0.04138249, -0.02076136, 0.99344468, -0.75600779, 87.60000610, 1210.81738281, 39.34000015, 0.00000000
1, 1.6401, 164, 0.01927036, -0.98023361, -0.24249420, 0.13444477, -1.20302033, -0.12018634, 12.36906433, -66.36645508, 49.98785782, -0.81904453, -0.17150709, -4.75435543, 0.99911237, 0.00720337, 0.00119890, 0.04148724, -0.02225352, 0.99453843, -0.75739908, 87.60000610, 1210.81738281, 39.34000015, 0.00000000
1, 1.6501, 165, 0.01980196, -0.98015267, -0.24328779, 0.24193186, -1.27164698, -0.06922309, 12.22280693, -64.69524384, 49.66431046, -0.81688714, -0.17389615, -4.76691294, 0.99910790, 0.00718555, 0.00121972, 0.04159686, -0.02282122, 0.99442363, -0.75660580, 87.60000610, 1210.81738281, 39.34000015, 0.00000000
1, 1.6601, 166, 0.02137062, -0.97989601, -0.24262267, 0.15400910, -1.40899968, -0.10699834, 11.96685791, -65.61880493, 49.98785782, -0.81564510, -0.17624141, -4.78088522, 0.99910283, 0.00717573, 0.00123974, 0.04171881, -0.02443075, 0.99414206, -0.75727117, 87.60000610, 1210.81738281, 39.34000015, 0.00000000
1, 1.6701, 167, 0.02379906, -0.97857207, -0.24314049, 0.22691549, -1.51106679, -0.12694559, 11.89372730, -66.58635712, 50.08301544, -0.81368297, -0.17864236, -4.79589987, 0.99909747, 0.00715966, 0.00126045, 0.04184985, -0.02690228, 0.99278462, -0.75675368, 87.60000610, 1210.81738281, 39.34000015, 0.00000000
1, 1.6801, 168, 0.02413688, -0.97665238, -0.24275380, 0.22920549, -1.68173492, -0.18327561, 12.47876072, -66.98216248, 49.89269638, -0.81580216, -0.17468777, -4.87472200, 0.99906838, 0.00717753, 0.00122026, 0.04253685, -0.02725415, 0.99085039, -0.75714058, 87.60000610, 1210.81738281, 39.34000015, 0.00000000
1, 1.6901, 169, 0.02301531, -0.97564751, -0.24374345, 0.28268766, -1.64700747, -0.18270919, 12.47876072, -66.98216248, 49.89269638, -0.81331128, -0.17686145, -4.89122105, 0.99906242, 0.00715680, 0.00123911, 0.04268080, -0.02608754, 0.98985654, -0.75615090, 87.60000610, 1210.81738281, 39.34000015, 0.00000000
1, 1.7001, 170, 0.02209782, -0.97378409, -0.24484777, 0.21250276, -1.62841141, -0.30515158, 12.73470974, -65.26697540, 49.45495987, -0.81153291, -0.17781036, -4.90780878, 0.99905634, 0.00714183, 0.00124701, 0.04282546, -0.02519285, 0.98796237, -0.75504690, 87.60000610, 1210.81738281, 39.34000015, 0.00000000
1, 1.7101, 171, 0.01978680, -0.97354901, -0.24647129, 0.31967717, -1.66273272, -0.25346616, 12.99066353, -65.53085327, 49.98785782, -0.80869275, -0.17934088, -4.92463017, 0.99905014, 0.00711783, 0.00126037, 0.04297217, -0.02290519, 0.98768228, -0.75342393, 87.60000610, 1210.81738281, 39.34000015, 0.00000000
1, 1.7201, 172, 0.02001835, -0.97477305, -0.24595447, 0.44542441, -1.71349251, -0.23733979, 12.69814968, -66.23451233, 49.75947571, -0.80460274, -0.18115096, -4.94193697, 0.99904394, 0.00708304, 0.00127662, 0.04312313, -0.02316771, 0.98884654, -0.75394154, 87.60000610, 1210.81738281, 39.34000015, 0.00000000
1, 1.7301, 173, 0.01777961, -0.97482640, -0.24462549, 0.57004547, -1.74824619, -0.15056023, 12.11311531, -66.36645508, 49.41689682, -0.80586970, -0.18480498, -5.02201986, 0.99901342, 0.00709637, 0.00130304, 0.04382154, -0.02097655, 0.98883617, -0.75527120, 87.60000610, 1210.81738281, 39.34000015, 0.00000000
1, 1.7401, 174, 0.01701736, -0.97478509, -0.24604887, 0.39245966, -1.64358437, -0.34117785, 12.11311531, -66.36645508, 49.41689682, -0.80229491, -0.18543300, -5.03889084, 0.99900711, 0.00706564, 0.00130884, 0.04396862, -0.02025239, 0.98881292, -0.75384754, 87.60000610, 1210.81738281, 39.34000015, 0.00000000
1, 1.7501, 175, 0.01681798, -0.97484505, -0.24432845, 0.42432541, -0.83308834, -0.12483200, 12.00342369, -65.09105682, 49.89269638, -0.79822087, -0.18622218, -5.04738855, 0.99900407, 0.00703052, 0.00131676, 0.04404270, -0.02006475, 0.98879826, -0.75556892, 87.60000610, 1210.81738281, 39.34000015, 0.00000000
1, 1.7601, 176, 0.02078583, -0.97772831, -0.24338272, 0.16997592, 0.11467138, -0.04535095, 12.77127552, -65.57482910, 49.79753494, -0.79650462, -0.18550555, -5.04642534, 0.99900460, 0.00701527, 0.00131123, 0.04403424, -0.02402255, 0.99164534, -0.75651515, 87.60000610, 1210.81738281, 39.34000015, 0.00000000
1, 1.7701, 177, 0.01845002, -0.97927105, -0.24243471, 0.25812483, 0.20027898, 0.00891399, 12.25937271, -66.71829224, 50.21624374, -0.79388314, -0.18511115, -5.04453421, 0.99900544, 0.00699225, 0.00130892, 0.04401770, -0.02168366, 0.99314243, -0.75746393, 87.60000610, 1210.81738281, 39.34000015, 0.00000000
1, 1.7801, 178, 0.01811244, -0.97964734, -0.24207188, 0.27407882, 0.33678219, 0.06446992, 12.55188751, -65.09105682, 49.94979858, -0.80117512, -0.19925113, -5.10471249, 0.99898148, 0.00706200, 0.00142568, 0.04454326, -0.02140516, 0.99351323, -0.75782657, 87.60000610, 1210.81738281, 39.34000015, 0.00000000
1, 1.7901, 179, 0.01792544, -0.97946429, -0.24225721, 0.23712182, 0.45657024, 0.06710143, 12.55188751, -65.09105682, 49.94979858, -0.79870987, -0.19881353, -5.10018301, 0.99898338, 0.00704028, 0.00142310, 0.04450371, -0.02139531, 0.99341691, -0.75763941, 87.60000610, 1210.81738281, 39.34000015, 0.00000000
1, 1.8001, 180, 0.01939745, -0.97893387, -0.24165273, 0.16565435, 0.50832546, 0.01567324, 12.47876072, -64.95912170, 49.74044037, -0.79695666, -0.19774674, -5.09523153, 0.99898553, 0.00702452, 0.00141478, 0.04446047, -0.02285542, 0.99285048, -0.75824445, 87.60000610, 1210.81738281, 39.34000015, 0.00000000
1, 1.8101, 181, 0.01947452, -0.97802061, -0.24149150, 0.03971814, 0.47217548, 0.06803354, 12.55188751, -64.82717896, 49.47399139, -0.79646146, -0.19727823, -5.09050512, 0.99898738, 0.00701996, 0.00141118, 0.04441923, -0.02292332, 0.99191916, -0.75840592, 87.60000610, 1210.81738281, 39.34000015, 0.00000000
1, 1.8201, 182, 0.01878658, -0.97641218, -0.24364129, -0.03398565, 0.60797518, 0.12384898, 12.84440613, -65.13504028, 49.85463333, -0.79668146, -0.19701636, -5.08429861, 0.99898976, 0.00702170, 0.00140919, 0.04436511, -0.02222945, 0.99031842, -0.75625610, 87.60000610, 1210.81738281, 39.34000015, 0.00000000
1, 1.8301, 183, 0.02003013, -0.97679090, -0.24359964, 0.12746865, 0.57464927, 0.14023268, 12.66158390, -66.23451233, 50.06398773, -0.80901808, -0.19629638, -5.14140701, 0.99896681, 0.00712967, 0.00139459, 0.04486308, -0.02346759, 0.99073672, -0.75629723, 87.60000610, 1210.81738281, 39.34000015, 0.00000000
1, 1.8401, 184, 0.02036029, -0.97711903, -0.24178304, 0.16255046, 0.66069460, 0.14193429, 12.22280693, -65.35493469, 49.58818436, -0.80724698, -0.19608419, -5.13469028, 0.99896955, 0.00711406, 0.00139385, 0.04480448, -0.02378242, 0.99121928, -0.75811166, 87.60000610, 1210.81738281, 39.34000015, 0.00000000
1, 1.8501, 185, 0.01940835, -0.97582775, -0.24141496, 0.18134245, 0.63427901, 0.21753992, 12.22280693, -65.35493469, 49.58818436, -0.80529255, -0.19667916, -5.12806320, 0.99897218, 0.00709718, 0.00140021, 0.04474672, -0.02284022, 0.98989713, -0.75848025, 87.60000610, 1210.81738281, 39.34000015, 0.00000000
1, 1.8601, 186, 0.02175146, -0.97622216, -0.24326909, 0.17125732, 0.59536552, 0.04110689, 12.22280693, -65.44289398, 49.51205444, -0.80345917, -0.19565398, -5.12221718, 0.99897456, 0.00708072, 0.00139235, 0.04469567, -0.02517112, 0.99026048, -0.75662655, 87.60000610, 1210.81738281, 39.34000015, 0.00000000
1, 1.8701, 187, 0.02069360, -0.97451741, -0.24212997, -0.02839867, 0.64298391, 0.18334542, 12.22280693, -65.97064209, 50.34946442, -0.80361640, -0.19589193, -5.11553478, 0.99897718, 0.00708211, 0.00139478, 0.04463744, -0.02410967, 0.98854047, -0.75776589, 87.60000610, 1210.81738281, 39.34000015, 0.00000000
1, 1.8801, 188, 0.02225850, -0.97700828, -0.24320763, -0.02624870, 0.54150009, 0.09331374, 13.24661255, -66.14656067, 50.23527145, -0.81620508, -0.18367441, -5.17307854, 0.99895406, 0.00718774, 0.00127975, 0.04513848, -0.02562380, 0.99109119, -0.75668752, 87.60000610, 1210.81738281, 39.34000015, 0.00000000
1, 1.8901, 189, 0.02212789, -0.97702301, -0.24237843, -0.06283946, 0.54035902, 0.14613663, 11.89372730, -65.04708099, 49.47399139, -0.81670678, -0.18379223, -5.16747379, 0.99895632, 0.00719209, 0.00128093, 0.04508963, -0.02533447, 0.99127060, -0.75751495, 87.60000610, 1210.81738281, 39.34000015, 0.00000000
1, 1.9001, 190, 0.02234983, -0.97788852, -0.24139760, -0.09598121, 0.45660630, 0.00385073, 11.89372730, -65.04708099, 49.47399139, -0.81757534, -0.18274577, -5.16301823, 0.99895799, 0.00719921, 0.00127175, 0.04505074, -0.02554779, 0.99215281, -0.75849551, 87.60000610, 1210.81738281, 39.34000015, 0.00000000
1, 1.9101, 191, 0.02171725, -0.97710747, -0.24124508, 0.10150869, 0.45844033, -0.01429330, 12.29593849, -63.94759750, 49.62625122, -0.81646299, -0.18149987, -5.15861464, 0.99895978, 0.00718897, 0.00126160, 0.04501226, -0.02489544, 0.99136639, -0.75864828, 87.60000610, 1210.81738281, 39.34000015, 0.00000000
1, 1.9201, 192, 0.02094303, -0.97743398, -0.24057896, 0.10130371, 0.31949890, 0.08825612, 12.58845234, -64.43137360, 49.98785782, -0.81538767, -0.18159045, -5.15532589, 0.99896121, 0.00717960, 0.00126302, 0.04498359, -0.02411005, 0.99167240, -0.75931466, 87.60000610, 1210.81738281, 39.34000015, 0.00000000
1, 1.9301, 193, 0.02003046, -0.97543097, -0.23888232, 0.06666938, 0.37268171, -0.03356798, 12.58845234, -65.70676422, 50.21624374, -0.80657351, -0.17945796, -5.21623659, 0.99893767, 0.00710258, 0.00124412, 0.04551434, -0.02318193, 0.98961592, -0.76101208, 87.60000610, 1210.81738281, 39.34000015, 0.00000000
1, 1.9401, 194, 0.01872301, -0.97817391, -0.24017777, 0.13711306, 0.40640378, 0.03723868, 12.69814968, -64.38739014, 50.19721222, -0.80511922, -0.17884389, -5.21222544, 0.99893939, 0.00708962, 0.00123959, 0.04547933, -0.02184965, 0.99222857, -0.75971854, 87.60000610, 1210.81738281, 39.34000015, 0.00000000
1, 1.9501, 195, 0.01773804, -0.97821009, -0.24074262, 0.06486429, 0.54392278, -0.01238398, 12.69814968, -64.38739014, 50.19721222, -0.80436468, -0.17742155, -5.20699501, 0.99894154, 0.00708242, 0.00122781, 0.04543364, -0.02084240, 0.99225253, -0.75915390, 87.60000610, 1210.81738281, 39.34000015, 0.00000000
1, 1.9601, 196, 0.01911598, -0.97891223, -0.24134797, 0.14479730, 0.49667707, -0.16907988, 12.62501812, -65.35493469, 49.93076324, -0.80282861, -0.17458931, -5.20262718, 0.99894345, 0.00706786, 0.00120400, 0.04539537, -0.02218493, 0.99293327, -0.75854903, 87.60000610, 1210.81738281, 39.34000015, 0.00000000
1, 1.9701, 197, 0.01941602, -0.97823483, -0.24149367, 0.14445217, 0.42691973, -0.10023221, 12.62501812, -64.87116241, 50.06398773, -0.80130738, -0.17259420, -5.19874907, 0.99894500, 0.00705377, 0.00118745, 0.04536143, -0.02244270, 0.99223095, -0.75840378, 87.60000610, 1210.81738281, 39.34000015, 0.00000000
1, 1.9801, 198, 0.01979114, -0.97752684, -0.23960763, 0.12669306, 0.46165773, -0.13460417, 11.96685791, -64.51932526, 49.53108597, -0.79975736, -0.17832255, -5.26021767, 0.99892056, 0.00704319, 0.00123422, 0.04589760, -0.02281240, 0.99149537, -0.76029027, 87.60000610, 1210.81738281, 39.34000015, 0.00000000
1, 1.9901, 199, 0.01813653, -0.97808564, -0.24052200, -0.01654946, 0.35675591, -0.08363636, 12.40563011, -67.68582916, 50.14011383, -0.79985303, -0.17665131, -5.25695038, 0.99892193, 0.00704332, 0.00121982, 0.04586902, -0.02122920, 0.99204928, -0.75937581, 87.60000610, 1210.81738281, 39.34000015, 0.00000000
1, 2.0001, 200, 0.01855483, -0.97791910, -0.23907012, 0.07191220, 0.40805802, -0.03009357, 12.40563011, -67.68582916, 50.14011383, -0.79904824, -0.17537281, -5.25306892, 0.99892348, 0.00703575, 0.00120923, 0.04583510, -0.02162348, 0.99187338, -0.76082784, 87.60000610, 1210.81738281, 39.34000015, 0.00000000
1, 2.0101, 201, 0.01900347, -0.97662330, -0.23964052, 0.05426075, 0.26954892, 0.03736175, 12.91753292, -65.79473114, 50.00689316, -0.79844880, -0.17508352, -5.25038815, 0.99892473, 0.00703038, 0.00120711, 0.04581171, -0.02206196, 0.99055994, -0.76025766, 87.60000610, 1210.81738281, 39.34000015, 0.00000000
1, 2.0201, 202, 0.01795723, -0.97716141, -0.23934813, 0.07239720, 0.40863112, -0.06523958, 12.07655048, -64.21147156, 49.83560181, -0.79763627, -0.17345895, -5.24660921, 0.99892628, 0.00702261, 0.00119351, 0.04577866, -0.02099589, 0.99108481, -0.76055032, 87.60000610, 1210.81738281, 39.34000015, 0.00000000
1, 2.0301, 203, 0.01886921, -0.97799927, -0.23949802, 0.01856470, 0.54686409, -0.15006021, 12.44219589, -64.73921967, 49.72140503, -0.79300624, -0.17741515, -5.30781841, 0.99890196, 0.00698448, 0.00122611, 0.04631242, -0.02189699, 0.99189806, -0.76040077, 87.60000610, 1210.81738281, 39.34000015, 0.00000000
1, 2.0401, 204, 0.01834461, -0.97727764, -0.23737554, 0.10870767, 0.54814053, -0.18546584, 12.40563011, -66.71829224, 49.53108597, -0.79181874, -0.17429116, -5.30298710, 0.99890399, 0.00697282, 0.00119966, 0.04627010, -0.02140428, 0.99110740, -0.76252413, 87.60000610, 1210.81738281, 39.34000015, 0.00000000
1, 2.0501, 205, 0.01773778, -0.97477973, -0.23979497, 0.00122589, 0.37404943, -0.08332714, 12.40563011, -66.71829224, 49.53108597, -0.79173595, -0.17258924, -5.29954815, 0.99890542, 0.00697138, 0.00118506, 0.04624002, -0.02075935, 0.98859924, -0.76010501, 87.60000610, 1210.81738281, 39.34000015, 0.00000000
1, 2.0601, 206, 0.01875434, -0.97332466, -0.23829655, 0.34327799, 0.13279837, -0.13751149, 11.85716152, -64.65126801, 50.04495239, -0.78828615, -0.17094395, -5.29867506, 0.99890602, 0.00694063, 0.00117217, 0.04623228, -0.02174747, 0.98711115, -0.76160395, 87.60000610, 1210.81738281, 39.34000015, 0.00000000
1, 2.0701, 207, 0.01701080, -0.97220916, -0.23913833, 0.56300068, 0.14346522, -0.07780877, 12.03998470, -64.07953644, 49.62625122, -0.78262937, -0.16984378, -5.29760170, 0.99890679, 0.00689087, 0.00116492, 0.04622280, -0.01998295, 0.98590553, -0.76076347, 87.60000610, 1210.81738281, 39.34000015, 0.00000000
1, 2.0801, 208, 0.01539835, -0.97484922, -0.23751339, 0.68892050, 0.12758380, -0.09610629, 12.29593849, -63.77168274, 49.77849960, -0.76279926, -0.18874764, -5.36472702, 0.99888039, 0.00672641, 0.00133377, 0.04680881, -0.01843805, 0.98837650, -0.76239049, 87.60000610, 1210.81738281, 39.34000015, 0.00000000
1, 2.0901, 209, 0.01520767, -0.97668672, -0.23715943, 0.78046966, -0.02551461, -0.13476174, 12.95409870, -65.53085327, 49.98785782, -0.75501031, -0.18750553, -5.36547518, 0.99888051, 0.00665801, 0.00132608, 0.04681518, -0.01848635, 0.98991811, -0.76274765, 87.60000610, 1210.81738281, 39.34000015, 0.00000000
1, 2.1001, 210, 0.01433871, -0.97594619, -0.23460983, 0.81950676, -0.21219444, -0.24427570, 12.95409870, -65.53085327, 49.98785782, -0.74687302, -0.18563399, -5.36831665, 0.99887985, 0.00658635, 0.00131293, 0.04683974, -0.01759088, 0.98903471, -0.76529926, 87.60000610, 1210.81738281, 39.34000015, 0.00000000
1, 2.1101, 211, 0.01451818, -0.97384733, -0.23413129, 1.01784289, -0.08799851, -0.40047631, 12.03998470, -63.99157715, 50.14011383, -0.73672229, -0.18195623, -5.37036610, 0.99887973, 0.00649639, 0.00128490, 0.04685729, -0.01771967, 0.98677003, -0.76578009, 87.60000610, 1210.81738281, 39.34000015, 0.00000000
1, 2.1201, 212, 0.01412191, -0.97343403, -0.23560955, 1.01870537, 0.08639470, -0.57259566, 12.55188751, -64.43137360, 50.15914154, -0.72655123, -0.17619371, -5.37114811, 0.99888009, 0.00640538, 0.00123879, 0.04686368, -0.01723753, 0.98618335, -0.76430434, 87.60000610, 1210.81738281, 39.34000015, 0.00000000
1, 2.1301, 213, 0.01215282, -0.96994358, -0.23252918, 1.11098218, -0.06584407, -0.66397011, 11.89372730, -64.78320312, 49.55012131, -0.70917588, -0.18093008, -5.43931770, 0.99885285, 0.00625662, 0.00128346, 0.04745796, -0.01520711, 0.98247528, -0.76738763, 87.60000610, 1210.81738281, 39.34000015, 0.00000000
1, 2.1401, 214, 0.01156636, -0.97293597, -0.23080324, 1.14949656, -0.11444204, -0.82331443, 12.03998470, -64.47534943, 49.39786530, -0.69774324, -0.17320253, -5.44267559, 0.99885225, 0.00615381, 0.00122065, 0.04748669, -0.01464059, 0.98518479, -0.76911706, 87.60000610, 1210.81738281, 39.34000015, 0.00000000
1, 2.1501, 215, 0.01370687, -0.97763836, -0.22632138, 1.13125253, -0.08027719, -0.82254040, 12.33250427, -64.12351990, 49.96882629, -0.68648833, -0.16541314, -5.44568539, 0.99885166, 0.00605251, 0.00115726, 0.04751240, -0.01664728, 0.98969233, -0.77360159, 87.60000610, 1210.81738281, 39.34000015, 0.00000000
1, 2.1601, 216, 0.01399568, -0.98327398, -0.22435868, 0.98978257, -0.10171770, -0.89122373, 12.33250427, -64.12351990, 49.96882629, -0.67666060, -0.15700540, -5.44901848, 0.99885094, 0.00596339, 0.00108787, 0.04754093, -0.01678527, 0.99514937, -0.77556694, 87.60000610, 1210.81738281, 39.34000015, 0.00000000
1, 2.1701, 217, 0.01450352, -0.98525137, -0.22218275, 0.91700995, -0.24753627, -0.66390091, 12.22280693, -65.57482910, 49.91172791, -0.66757464, -0.15114161, -5.45321941, 0.99884975, 0.00588179, 0.00104032, 0.04757717, -0.01717798, 0.99695647, -0.77774513, 87.60000610, 1210.81738281, 39.34000015, 0.00000000
1, 2.1801, 218, 0.01290937, -0.98754311, -0.22335503, 1.20398510, -0.27987733, -0.64788061, 11.96685791, -65.31095886, 50.42559433, -0.64237177, -0.15412398, -5.52251720, 0.99882209, 0.00566400, 0.00107335, 0.04818112, -0.01552583, 0.99901134, -0.77657574, 87.60000610, 1210.81738281, 39.34000015, 0.00000000
1, 2.1901, 219, 0.00597800, -0.98317897, -0.22429173, 1.34674275, -0.17554869, -0.66370231, 11.67433929, -63.90362167, 50.02592087, -0.62897420, -0.14809570, -5.52611923, 0.99882126, 0.00554472, 0.00102626, 0.04821210, -0.00860499, 0.99424487, -0.77564359, 87.60000610, 1210.81738281, 39.34000015, 0.00000000
1, 2.2001, 220, 0.00347298, -0.98107433, -0.22476552, 1.59438431, 0.06512696, -0.57150865, 11.96685791, -63.90362167, 49.47399139, -0.61305285, -0.14240035, -5.52721262, 0.99882162, 0.00540356, 0.00098327, 0.04822122, -0.00599158, 0.99188286, -0.77517289, 87.60000610, 1210.81738281, 39.34000015, 0.00000000
1, 2.2101, 221, 0.00141436, -0.97792906, -0.22507314, 1.64578164, 0.40946415, -0.61716163, 11.96685791, -63.90362167, 49.47399139, -0.59654218, -0.13544483, -5.52509642, 0.99882340, 0.00525670, 0.00092969, 0.04820233, -0.00382469, 0.98845136, -0.77486861, 87.60000610, 1210.81738281, 39.34000015, 0.00000000
1, 2.2201, 222, -0.00170815, -0.97831529, -0.22474080, 1.65920305, 0.71634889, -0.48770276, 12.36906433, -64.43137360, 50.36849594, -0.57983238, -0.12901740, -5.51969147, 0.99882650, 0.00510831, 0.00088093, 0.04815480, -0.00058881, 0.98854369, -0.77520424, 87.60000610, 1210.81738281, 39.34000015, 0.00000000
1, 2.2301, 223, -0.00209119, -0.98375589, -0.22419938, 1.76548851, 0.94103867, -0.53603899, 12.66158390, -65.26697540, 50.57784653, -0.55391169, -0.13733064, -5.57622433, 0.99880362, 0.00488634, 0.00096188, 0.04864770, -0.00014929, 0.99364436, -0.77574921, 87.60000610, 1210.81738281, 39.34000015, 0.00000000
1, 2.2401, 224, -0.00203307, -0.98555595, -0.22405782, 1.78489113, 0.99493003, -0.67559189, 12.66158390, -63.77168274, 49.56915665, -0.53589141, -0.12842244, -5.56856871, 0.99880773, 0.00472543, 0.00089220, 0.04858047, -0.00026733, 0.99502957, -0.77589464, 87.60000610, 1210.81738281, 39.34000015, 0.00000000
1, 2.2501, 225, -0.00283276, -0.98540175, -0.22492696, 1.58641040, 1.18263614, -0.70619482, 12.14968109, -64.51932526, 49.49302673, -0.51980633, -0.11878461, -5.55913115, 0.99881250, 0.00458108, 0.00081539, 0.04849771, 0.00069590, 0.99458075, -0.77502859, 87.60000610, 1210.81738281, 39.34000015, 0.00000000
1, 2.2601, 226, -0.00078241, -0.98158026, -0.22564638, 1.20992839, 1.43983889, -0.87541848, 12.14968109, -64.51932526, 49.49302673, -0.50743771, -0.10690756, -5.54748631, 0.99881804, 0.00446817, 0.00071755, 0.04839566, -0.00116215, 0.99050701, -0.77431190, 87.60000610, 1210.81738281, 39.34000015, 0.00000000
1, 2.2701, 227, 0.00139908, -0.97771174, -0.22731785, 0.74238765, 1.60799527, -0.88803095, 12.14968109, -63.94759750, 50.10204697, -0.49971527, -0.09449622, -5.53411150, 0.99882412, 0.00439555, 0.00061314, 0.04827856, -0.00312538, 0.98648107, -0.77264220, 87.60000610, 1210.81738281, 39.34000015, 0.00000000
1, 2.2801, 228, 0.00282970, -0.97537613, -0.22519323, 0.22552946, 1.36492276, -0.96187288, 12.51532650, -64.65126801, 50.00689316, -0.48763853, -0.10201051, -5.58796930, 0.99880171, 0.00429377, 0.00068171, 0.04874822, -0.00443101, 0.98402005, -0.77476817, 87.60000610, 1210.81738281, 39.34000015, 0.00000000
1, 2.2901, 229, 0.00546037, -0.97203112, -0.22412516, -0.00359312, 1.19443154, -1.14053941, 11.45495605, -63.99157715, 49.91172791, -0.48747233, -0.08812117, -5.57902575, 0.99880564, 0.00428637, 0.00056106, 0.04866976, -0.00709336, 0.98053646, -0.77583730, 87.60000610, 1210.81738281, 39.34000015, 0.00000000
1, 2.3001, 230, 0.00847538, -0.97287148, -0.22409825, -0.12705527, 1.31724131, -1.36609757, 12.47876072, -65.26697540, 50.44462967, -0.48851755, -0.07175099, -5.56939697, 0.99880975, 0.00428849, 0.00041829, 0.04858523, -0.00984006, 0.98139006, -0.77586460, 87.60000610, 1210.81738281, 39.34000015, 0.00000000
1, 2.3101, 231, 0.00579231, -0.97421247, -0.22272182, -0.10647245, 1.26850271, -1.52539003, 12.47876072, -65.26697540, 50.44462967, -0.48939368, -0.05393950, -5.56063080, 0.99881363, 0.00428856, 0.00026299, 0.04850817, -0.00684653, 0.98274922, -0.77724123, 87.60000610, 1210.81738281, 39.34000015, 0.00000000
1, 2.3201, 232, 0.00017764, -0.97815537, -0.21751924, -0.15752946, 1.23664033, -1.70168686, 12.18624687, -64.25545502, 50.17817688, -0.49077487, -0.03449341, -5.55255890, 0.99881709, 0.00429236, 0.00009321, 0.04843709, -0.00090725, 0.98670477, -0.78244400, 87.60000610, 1210.81738281, 39.34000015, 0.00000000
1, 2.3301, 233, -0.00101709, -0.98226202, -0.21134651, -0.35826328, 1.45635974, -1.59098339, 12.40563011, -65.39891052, 49.91172791, -0.47392654, -0.03006988, -5.60554171, 0.99879515, 0.00414366, 0.00005986, 0.04889872, 0.00056051, 0.99076617, -0.78861725, 87.60000610, 1210.81738281, 39.34000015, 0.00000000
1, 2.3401, 234, -0.00126113, -0.98482788, -0.20336777, -0.61869812, 1.65134037, -1.04115963, 11.74746990, -64.29943085, 49.64528275, -0.47979075, -0.01607770, -5.59179592, 0.99880087, 0.00418881, -0.00006410, 0.04877841, 0.00089735, 0.99315518, -0.79659748, 87.60000610, 1210.81738281, 39.34000015, 0.00000000
1, 2.3501, 235, -0.00446788, -0.98494333, -0.20091139, -1.40157855, 2.08209348, -0.46720240, 11.82060146, -63.50780487, 49.96882629, -0.49334824, -0.00664862, -5.57232475, 0.99880862, 0.00430299, -0.00015132, 0.04860833, 0.00430007, 0.99345082, -0.79905248, 87.60000610, 1210.81738281, 39.34000015, 0.00000000
1, 2.3601, 236, -0.01221594, -0.98259133, -0.19670233, -1.87569964, 2.13845038, 0.06278251, 11.82060146, -63.50780487, 49.96882629, -0.51159418, -0.00223513, -5.55094337, 0.99881709, 0.00446019, -0.00019670, 0.04842177, 0.01215223, 0.99139768, -0.80325896, 87.60000610, 1210.81738281, 39.34000015, 0.00000000
1, 2.3701, 237, -0.02496219, -0.99104428, -0.19247150, -2.07386303, 2.04913330, 0.18455921, 12.03998470, -65.09105682, 50.31140137, -0.53183252, 0.00078965, -5.53008795, 0.99882507, 0.00463536, -0.00023077, 0.04823983, 0.02495212, 1.00019121, -0.80748671, 87.60000610, 1210.81738281, 39.34000015, 0.00000000
1, 2.3801, 238, -0.03131416, -1.00697553, -0.18751676, -1.74629354, 1.90130198, -0.06564737, 12.29593849, -64.56330872, 50.04495239, -0.51346648, -0.03058173, -5.57592726, 0.99880636, 0.00448850, 0.00004861, 0.04864064, 0.03122479, 1.01629615, -0.81243980, 87.60000610, 1210.81738281, 39.34000015, 0.00000000
1, 2.3901, 239, -0.03261929, -1.01552033, -0.17833099, -1.61460221, 1.73620355, -0.40350917, 11.78403568, -63.50780487, 50.10204697, -0.52923632, -0.02257361, -5.55961609, 0.99881268, 0.00462256, -0.00002723, 0.04849815, 0.03217280, 1.02465320, -0.82162720, 87.60000610, 1210.81738281, 39.34000015, 0.00000000
1, 2.4001, 240, -0.02560415, -1.01192534, -0.16561352, -1.59516191, 1.65143991, -0.45808566, 12.33250427, -63.77168274, 50.27333832, -0.54482043, -0.01422856, -5.54427385, 0.99881852, 0.00475488, -0.00010592, 0.04836407, 0.02530151, 1.02133012, -0.83434224, 87.60000610, 1210.81738281, 39.34000015, 0.00000000
1, 2.4101, 241, -0.01441819, -1.00055027, -0.15919457, -1.39518821, 1.32679832, -0.44794446, 11.93029308, -65.70676422, 50.86332703, -0.55848706, -0.00675619, -5.53209877, 0.99882311, 0.00487086, -0.00017630, 0.04825762, 0.01425777, 1.01021731, -0.84075868, 87.60000610, 1210.81738281, 39.34000015, 0.00000000
1, 2.4201, 242, -0.00326859, -0.99396628, -0.15053350, -0.82034397, 0.76038730, -0.16278018, 11.93029308, -65.70676422, 50.86332703, -0.56652391, -0.00336955, -5.52488756, 0.99882579, 0.00493950, -0.00020890, 0.04819461, 0.00319246, 1.00381517, -0.84941804, 87.60000610, 1210.81738281, 39.34000015, 0.00000000
1, 2.4301, 243, 0.00509750, -0.99343503, -0.14542305, -0.09350077, -0.12421002, -0.28907168, 12.40563011, -65.22299194, 50.71107483, -0.29859141, -0.04248506, -5.59816837, 0.99880350, 0.00262069, 0.00024306, 0.04883459, -0.00530951, 1.00216746, -0.85453665, 87.60000610, 1210.81738281, 39.34000015, 0.00000000
1, 2.4401, 244, 0.00681606, -0.99560195, -0.13969688, 0.57115430, -1.51822245, -0.77744877, 12.47876072, -63.50780487, 50.17817688, -0.29327071, -0.03843514, -5.61486530, 0.99879646, 0.00257262, 0.00020966, 0.04898002, -0.00751803, 1.00076056, -0.86028957, 87.60000610, 1210.81738281, 39.34000015, 0.00000000
1, 2.4501, 245, 0.01006442, -0.99546593, -0.14344494, 0.73620915, -3.24264932, -1.23608720, 11.67433929, -64.34340668, 49.81657028, -0.28671676, -0.03390541, -5.64942884, 0.99878186, 0.00251361, 0.00017222, 0.04928117, -0.01068554, 1.00051260, -0.85654211, 87.60000610, 1210.81738281, 39.34000015, 0.00000000
1, 2.4601, 246, 0.00986985, -0.99618083, -0.14471370, 0.84514678, -4.90089369, -1.57011425, 12.62501812, -65.79473114, 50.15914154, -0.27946904, -0.02996356, -5.70094204, 0.99875975, 0.00244881, 0.00013988, 0.04973006, -0.01042111, 1.00110245, -0.85527402, 87.60000610, 1210.81738281, 39.34000015, 0.00000000
1, 2.4701, 247, 0.00606591, -0.99638301, -0.16284855, 0.32704553, -6.30333138, -2.10778451, 12.62501812, -65.79473114, 50.15914154, -0.27776295, -0.02401658, -5.76719666, 0.99873084, 0.00243141, 0.00008738, 0.05030739, -0.00652230, 1.00123203, -0.83713961, 87.60000610, 1210.81738281, 39.34000015, 0.00000000
1, 2.4801, 248, -0.00625748, -0.98392653, -0.18160105, -0.04725812, -7.63488626, -2.71471786, 12.91753292, -64.47534943, 50.06398773, -0.27169657, -0.02258374, -5.90654278, 0.99866909, 0.00237800, 0.00007466, 0.05152180, 0.00589969, 0.98875904, -0.81838721, 87.60000610, 1210.81738281, 39.34000015, 0.00000000
1, 2.4901, 249, -0.02438115, -0.97881019, -0.19250052, -0.50997955, -8.61893272, -3.63048387, 12.88097191, -64.51932526, 49.81657028, -0.27898684, -0.00715455, -5.99862957, 0.99862719, 0.00243455, -0.00006504, 0.05232399, 0.02414887, 0.98362058, -0.80748791, 87.60000610, 1210.81738281, 39.34000015, 0.00000000
1, 2.5001, 250, -0.04334395, -0.98089838, -0.21146059, -2.08887720, -9.53023434, -4.27763081, 12.40563011, -63.99157715, 49.68334579, -0.30233762, 0.01243748, -6.10070801, 0.99857968, 0.00262888, -0.00024878, 0.05321308, 0.04342627, 0.98600286, -0.78852630, 87.60000610, 1210.81738281, 39.34000015, 0.00000000
1, 2.5101, 251, -0.06391802, -0.98666006, -0.22701854, -3.99919796, -9.95151043, -4.61462975, 12.47876072, -63.37586975, 49.87366486, -0.34494439, 0.03427784, -6.20722008, 0.99852884, 0.00298959, -0.00046167, 0.05414057, 0.06437163, 0.99236953, -0.77296507, 87.60000610, 1210.81738281, 39.34000015, 0.00000000
1, 2.5201, 252, -0.08069970, -0.98314434, -0.24354544, -5.86417723, -9.49814510, -4.89822292, 12.47876072, -63.37586975, 49.87366486, -0.40614107, 0.05984225, -6.30955410, 0.99847823, 0.00351013, -0.00071648, 0.05503121, 0.08157665, 0.98981428, -0.75643182, 87.60000610, 1210.81738281, 39.34000015, 0.00000000
1, 2.5301, 253, -0.08075733, -0.97925508, -0.25853318, -6.64203548, -9.02678204, -4.71015024, 13.17348671, -65.22299194, 49.74044037, -0.48122334, 0.07185400, -6.45950174, 0.99840283, 0.00415745, -0.00086264, 0.05633678, 0.08201890, 0.98710841, -0.74143511, 87.60000610, 1210.81738281, 39.34000015, 0.00000000
1, 2.5401, 254, -0.07272608, -0.95924670, -0.25744051, -7.07466650, -8.80746078, -4.68663692, 12.58845234, -64.60728455, 49.68334579, -0.55440438, 0.09673402, -6.55440950, 0.99835289, 0.00478190, -0.00111935, 0.05716205, 0.07424814, 0.96844333, -0.74251598, 87.60000610, 1210.81738281, 39.34000015, 0.00000000
1, 2.5501, 255, -0.05358107, -0.93935186, -0.26016560, -5.59576416, -9.21929836, -5.03380823, 13.24661255, -64.21147156, 49.60721588, -0.61297476, 0.12388600, -6.65449286, 0.99829990, 0.00527742, -0.00138973, 0.05803212, 0.05555438, 0.94969457, -0.73977894, 87.60000610, 1210.81738281, 39.34000015, 0.00000000
1, 2.5601, 256, -0.00410383, -0.91902107, -0.26040250, -3.67762280, -10.17206478, -5.67494917, 12.58845234, -65.83870697, 49.15044403, -0.65269154, 0.15492678, -6.76586294, 0.99824083, 0.00560607, -0.00168571, 0.05900028, 0.00659790, 0.93017048, -0.73953223, 87.60000610, 1210.81738281, 39.34000015, 0.00000000
1, 2.5701, 257, 0.04202374, -0.91553164, -0.26495045, -1.71734202, -12.24406433, -6.05849600, 12.58845234, -65.83870697, 49.15044403, -0.67345953, 0.18470840, -6.89873362, 0.99817044, 0.00576937, -0.00196253, 0.06015586, -0.03898609, 0.92717344, -0.73497713, 87.60000610, 1210.81738281, 39.34000015, 0.00000000
1, 2.5801, 258, 0.06549727, -0.93790293, -0.24703950, -0.42398959, -14.53340626, -6.05785036, 12.73470974, -63.77168274, 48.96012878, -0.68663174, 0.21744861, -7.10841322, 0.99805760, 0.00586278, -0.00226537, 0.06198024, -0.06195658, 0.94977331, -0.75288379, 87.60000610, 1210.81738281, 39.34000015, 0.00000000
1, 2.5901, 259, 0.07161487, -0.97554427, -0.23791972, -0.16864322, -15.75730801, -5.59216976, 13.06379032, -63.55178452, 48.76980972, -0.69297624, 0.23427819, -7.27468586, 0.99796605, 0.00590542, -0.00242395, 0.06342732, -0.06763002, 0.98759037, -0.76199979, 87.60000610, 1210.81738281, 39.34000015, 0.00000000
1, 2.6001, 260, 0.07704346, -1.01827204, -0.24752034, -1.08609438, -16.92585373, -5.93033886, 13.13692093, -66.85022736, 48.84593582, -0.70888138, 0.25158074, -7.45288658, 0.99786520, 0.00603034, -0.00259282, 0.06497788, -0.07277004, 1.03051996, -0.75239557, 87.60000610, 1210.81738281, 39.34000015, 0.00000000
1, 2.6101, 261, 0.08016574, -1.07243395, -0.26313567, -2.62668467, -18.05566216, -7.90056992, 13.35630894, -64.51932526, 49.34076691, -0.74070787, 0.28525296, -7.64638662, 0.99775177, 0.00628347, -0.00291470, 0.06666014, -0.07544255, 1.08513081, -0.73677254, 87.60000610, 1210.81738281, 39.34000015, 0.00000000
1, 2.6201, 262, 0.06959178, -1.10228717, -0.24903481, -2.77925658, -19.92516327, -11.20897293, 13.35630894, -64.51932526, 49.34076691, -0.77496284, 0.34645712, -7.86593008, 0.99761903, 0.00653945, -0.00348007, 0.06856700, -0.06398810, 1.11560261, -0.75086087, 87.60000610, 1210.81738281, 39.34000015, 0.00000000
1, 2.6301, 263, 0.08418848, -1.08221483, -0.23402415, -0.96221566, -20.84634781, -14.90776539, 13.02722931, -64.91514587, 48.92206573, -0.79250497, 0.44669420, -8.15085125, 0.99744189, 0.00662128, -0.00437968, 0.07104047, -0.07712518, 1.09595966, -0.76585627, 87.60000610, 1210.81738281, 39.34000015, 0.00000000
1, 2.6401, 264, 0.09575281, -1.05195963, -0.19429734, 3.72614908, -23.83274460, -20.02986908, 13.57569790, -63.50780487, 48.92206573, -0.76445103, 0.58408487, -8.43103600, 0.99726206, 0.00627824, -0.00557355, 0.07347178, -0.08648519, 1.06551862, -0.80556750, 87.60000610, 1210.81738281, 39.34000015, 0.00000000
1, 2.6501, 265, 0.11729281, -1.02011967, -0.13325073, 8.24419403, -28.80371857, -24.54277802, 13.57569790, -62.89209366, 48.86497116, -0.69409108, 0.75366384, -8.77122688, 0.99703526, 0.00553627, -0.00702070, 0.07642587, -0.10527971, 1.03272152, -0.86659729, 87.60000610, 1210.81738281, 39.34000015, 0.00000000
1, 2.6601, 266, 0.15881355, -0.99539381, -0.09400555, 10.17683601, -31.76040459, -27.52885437, 13.79508114, -62.80414200, 48.44626236, -0.60687315, 0.94568932, -9.14746761, 0.99677110, 0.00462083, -0.00864850, 0.07969453, -0.14358005, 1.00661147, -0.90581489, 87.60000610, 1210.81738281, 39.34000015, 0.00000000
1, 2.6701, 267, 0.18606804, -1.01903820, -0.06707806, 12.85682297, -35.87962341, -29.36390686, 13.79508114, -62.80414200, 48.44626236, -0.49602130, 1.14649582, -9.56839371, 0.99646032, 0.00347886, -0.01033094, 0.08335485, -0.16738440, 1.02846134, -0.93270230, 87.60000610, 1210.81738281, 39.34000015, 0.00000000
1, 2.6801, 268, 0.19240834, -1.07351971, -0.07475305, 13.05443287, -41.28942108, -31.11302948, 14.01446915, -62.05649185, 48.23691177, -0.38361633, 1.35788584, -10.07954121, 0.99606204, 0.00229356, -0.01209770, 0.08780101, -0.17012307, 1.08100772, -0.92496985, 87.60000610, 1210.81738281, 39.34000015, 0.00000000
1, 2.6901, 269, 0.18789922, -1.16440749, -0.05290063, 15.21948147, -47.29277420, -33.40800095, 15.07484055, -61.04496765, 47.97046280, -0.25819781, 1.57331586, -10.62066650, 0.99561453, 0.00097267, -0.01387889, 0.09251036, -0.16188270, 1.16971076, -0.94674605, 87.60000610, 1210.81738281, 39.34000015, 0.00000000
1, 2.7001, 270, 0.20039646, -1.17917311, -0.09760731, 12.93942642, -50.76653290, -36.16353607, 15.51361179, -61.22089005, 47.91336823, -0.15983339, 1.80864513, -11.20102501, 0.99510384, -0.00015229, -0.01584350, 0.09755762, -0.17040390, 1.18256402, -0.90193629, 87.60000610, 1210.81738281, 39.34000015, 0.00000000
1, 2.7101, 271, 0.21561360, -1.14209962, -0.15431231, 12.63371944, -54.43064117, -38.92911148, 15.11140537, -60.91303253, 46.98080063, -0.06941762, 2.06345344, -11.82300472, 0.99452198, -0.00125202, -0.01797267, 0.10296464, -0.18129519, 1.14391673, -0.84509611, 87.60000610, 1210.81738281, 39.34000015, 0.00000000
1, 2.7201, 272, 0.22745170, -1.11759627, -0.17612985, 13.43393517, -57.33378983, -40.46917725, 15.33078861, -59.41773987, 46.46693420, 0.02421529, 2.32769608, -12.47666454, 0.99387300, -0.00241717, -0.02016834, 0.10864626, -0.18858302, 1.11778092, -0.82311356, 87.60000610, 1210.81738281, 39.34000015, 0.00000000
1, 2.7301, 273, 0.22443293, -1.10910261, -0.21173178, 13.04447746, -56.22134018, -41.53445435, 15.33078861, -59.41773987, 46.46693420, 0.11008354, 2.61048031, -13.15218544, 0.99315989, -0.00356277, -0.02251889, 0.11451457, -0.18077478, 1.10771358, -0.78731281, 87.60000610, 1210.81738281, 39.34000015, 0.00000000
1, 2.7401, 274, 0.21669053, -1.08690417, -0.24497943, 12.34320450, -56.22911835, -41.39184189, 16.39115906, -58.53815460, 46.21951675, 0.18714151, 2.88811564, -13.79636192, 0.99243963, -0.00464754, -0.02482235, 0.12010784, -0.16810787, 1.08417380, -0.75383502, 87.60000610, 1210.81738281, 39.34000015, 0.00000000
1, 2.7501, 275, 0.16462928, -1.07297564, -0.26643229, 6.75956631, -54.86309433, -40.48470306, 16.42772484, -59.63763428, 45.87694168, 0.20657745, 3.16046143, -14.42375946, 0.99170363, -0.00524973, -0.02713229, 0.12554029, -0.11127041, 1.06957221, -0.73213637, 87.60000610, 1210.81738281, 39.34000015, 0.00000000
1, 2.7601, 276, 0.08813725, -1.09342539, -0.26633748, 12.02861595, -48.75820160, -37.70056915, 16.64711380, -58.58213425, 45.53436661, 0.28107905, 3.41974974, -14.98656368, 0.99100620, -0.00632207, -0.02926386, 0.13042401, -0.03016162, 1.08907604, -0.73197019, 87.60000610, 1210.81738281, 39.34000015, 0.00000000
1, 2.7701, 277, 0.01774190, -1.11836588, -0.25790080, 0.93431914, -43.48662567, -33.72372437, 16.53741646, -56.60307312, 45.40114212, 0.24756749, 3.65220976, -15.48638058, 0.99036717, -0.00643306, -0.03128457, 0.13473260, 0.04448238, 1.11377835, -0.74015021, 87.60000610, 1210.81738281, 39.34000015, 0.00000000
1, 2.7801, 278, -0.00734202, -1.13517165, -0.23580356, 1.89045763, -35.40918732, -27.66810036, 16.53741646, -56.60307312, 45.40114212, 0.22908561, 3.84150028, -15.93728161, 0.98977649, -0.00662524, -0.03291643, 0.13861924, 0.07320536, 1.13107538, -0.76201630, 87.60000610, 1210.81738281, 39.34000015, 0.00000000
1, 2.7901, 279, 0.02763810, -1.12866247, -0.22340588, 0.53781259, -26.41960716, -18.65065765, 16.24490356, -55.59154510, 44.86824417, 0.20685066, 3.96454930, -16.23708534, 0.98937517, -0.00667084, -0.03398882, 0.14119865, 0.04080359, 1.12489998, -0.77424198, 87.60000610, 1210.81738281, 39.34000015, 0.00000000
1, 2.8001, 280, 0.03643339, -1.10811019, -0.23310068, 5.70551348, -20.65613937, -9.66825390, 16.39115906, -55.85542297, 44.92533875, 0.24286699, 4.01284885, -16.46185303, 0.98907948, -0.00710864, -0.03434758, 0.14314847, 0.03331836, 1.10423493, -0.76445615, 87.60000610, 1210.81738281, 39.34000015, 0.00000000
1, 2.8101, 281, 0.03233355, -1.08934784, -0.20430399, 12.12386990, -16.09070206, -3.45708203, 16.82993698, -55.89940262, 45.13468933, 0.34835148, 4.01096439, -16.62970543, 0.98886240, -0.00806685, -0.03418775, 0.14462870, 0.03768305, 1.08406234, -0.79322767, 87.60000610, 1210.81738281, 39.34000015, 0.00000000
1, 2.8201, 282, 0.02702288, -1.05620694, -0.17987888, 16.11955452, -11.74713612, 0.45408109, 16.61054802, -57.35071564, 44.77308655, 0.49855542, 3.98081779, -16.74747658, 0.98871100, -0.00935971, -0.03372838, 0.14568977, 0.04262068, 1.04857087, -0.81766355, 87.60000610, 1210.81738281, 39.34000015, 0.00000000
1, 2.8301, 283, 0.02052972, -1.02473557, -0.18070875, 19.68340683, -8.30281734, 2.46678114, 16.61054802, -57.35071564, 44.77308655, 0.68790275, 3.93363190, -16.87987709, 0.98853952, -0.01097178, -0.03306781, 0.14688721, 0.04842434, 1.01403689, -0.81685328, 87.60000610, 1210.81738281, 39.34000015, 0.00000000
1, 2.8401, 284, 0.01983380, -0.99825466, -0.15889630, 22.24682999, -5.06629324, 3.05433059, 16.90306282, -55.76746750, 44.71599197, 0.90598160, 3.89307761, -16.92833710, 0.98846698, -0.01281494, -0.03243292, 0.14736691, 0.04831294, 0.98392713, -0.83867556, 87.60000610, 1210.81738281, 39.34000015, 0.00000000
1, 2.8501, 285, 0.04612555, -0.98850298, -0.15346242, 22.40846634, -2.15575218, 2.48220730, 16.35459518, -55.67950821, 44.50663376, 1.12819231, 3.86438322, -16.94965553, 0.98842156, -0.01470089, -0.03189682, 0.14761223, 0.02144064, 0.97030801, -0.84408587, 87.60000610, 1210.81738281, 39.34000015, 0.00000000
1, 2.8601, 286, 0.09139238, -0.99681675, -0.13681263, 21.35976791, -0.97416699, 1.06883621, 16.24490356, -55.37165070, 44.50663376, 1.34071887, 3.85203218, -16.96214867, 0.98838031, -0.01652163, -0.03151465, 0.14777818, -0.02415291, 0.97483617, -0.86068159, 87.60000610, 1210.81738281, 39.34000015, 0.00000000
1, 2.8701, 287, 0.14405759, -0.99623966, -0.12229515, 19.17413139, -0.75984854, -0.50201792, 17.15901566, -55.89940262, 45.07759476, 1.53131342, 3.85553551, -16.97524643, 0.98833346, -0.01817361, -0.03129696, 0.14794360, -0.07685869, 0.97077984, -0.87511915, 87.60000610, 1210.81738281, 39.34000015, 0.00000000
1, 2.8801, 288, 0.17807576, -0.99044007, -0.10828235, 17.26208687, -1.56087792, -1.76106787, 17.15901566, -55.89940262, 45.07759476, 1.71479130, 3.88769388, -17.05644608, 0.98818797, -0.01981950, -0.03132339, 0.14869656, -0.11061607, 0.96182907, -0.88902891, 87.60000610, 1210.81738281, 39.34000015, 0.00000000
1, 2.8901, 289, 0.19958587, -0.97191447, -0.09908405, 14.80596447, -1.80123246, -2.93635249, 16.39115906, -57.30673599, 44.88727570, 1.86039579, 3.91308331, -17.08346367, 0.98811889, -0.02111522, -0.03134843, 0.14897163, -0.13152210, 0.94045317, -0.89810050, 87.60000610, 1210.81738281, 39.34000015, 0.00000000
1, 2.9001, 290, 0.20451392, -0.93881500, -0.09580839, 12.38750172, -2.50729585, -3.94575953, 17.23214340, -58.01040649, 44.90631104, 1.98102081, 3.94705248, -17.11874390, 0.98803943, -0.02220886, -0.03147772, 0.14931232, -0.13590971, 0.90508211, -0.90126497, 87.60000610, 1210.81738281, 39.34000015, 0.00000000
1, 2.9101, 291, 0.20240916, -0.89734691, -0.09624176, 11.30946541, -3.98452592, -5.43251801, 17.52466202, -56.91092300, 44.81114960, 2.08922219, 3.99284124, -17.17108345, 0.98793495, -0.02321546, -0.03172098, 0.14979836, -0.13310075, 0.86163795, -0.90071416, 87.60000610, 1210.81738281, 39.34000015, 0.00000000
1, 2.9201, 292, 0.18252799, -0.85249233, -0.09789114, 8.40171814, -4.59271765, -7.42275572, 16.79337120, -55.32767487, 44.60179901, 2.16743374, 4.05708122, -17.23239708, 0.98781747, -0.02399021, -0.03215984, 0.15035610, -0.11221437, 0.81525242, -0.89893830, 87.60000610, 1210.81738281, 39.34000015, 0.00000000
1, 2.9301, 293, 0.16699335, -0.83780795, -0.09617097, 6.98159504, -6.92008543, -9.55915833, 16.79337120, -55.32767487, 44.60179901, 2.23153806, 4.14985704, -17.37740898, 0.98758179, -0.02470503, -0.03284439, 0.15163516, -0.09532858, 0.79936433, -0.90051651, 87.60000610, 1210.81738281, 39.34000015, 0.00000000
1, 2.9401, 294, 0.15352952, -0.82352984, -0.11156911, 3.07155108, -6.68811846, -10.93100452, 16.20833778, -57.92244339, 44.63985825, 2.25369310, 4.24467373, -17.46459007, 0.98742890, -0.02504585, -0.03361334, 0.15240428, -0.08013552, 0.78446418, -0.88496840, 87.60000610, 1210.81738281, 39.34000015, 0.00000000
1, 2.9501, 295, 0.13859916, -0.82841021, -0.09004467, 2.53626108, -8.81799221, -11.06203556, 16.39115906, -57.61459351, 45.00146484, 2.26828718, 4.33680344, -17.57283974, 0.98724914, -0.02532544, -0.03436407, 0.15335239, -0.06357076, 0.78899068, -0.90635717, 87.60000610, 1210.81738281, 39.34000015, 0.00000000
1, 2.9601, 296, 0.11932674, -0.84149051, -0.06678031, 0.59123272, -9.65799236, -9.93115330, 17.30527306, -56.91092300, 44.62083054, 2.26270223, 4.41625881, -17.68676949, 0.98706919, -0.02541746, -0.03503098, 0.15434164, -0.04282893, 0.80203903, -0.92950851, 87.59500122, 1211.28613281, 39.36999893, 0.00000000
1, 2.9701, 297, 0.10434942, -0.85934770, -0.07753320, -2.63827658, -6.40249491, -8.00710773, 16.39115906, -56.29521561, 44.56372833, 2.22837520, 4.48285675, -17.76427841, 0.98694813, -0.02523471, -0.03563395, 0.15500644, -0.02659562, 0.82031000, -0.91867477, 87.59500122, 1211.28613281, 39.36999893, 0.00000000
1, 2.9801, 298, 0.08154763, -0.85972893, -0.09221539, -5.90041161, -4.68648529, -5.34188080, 16.39115906, -56.29521561, 44.56372833, 2.17148352, 4.52652884, -17.88022232, 0.98678720, -0.02483972, -0.03606201, 0.15599205, -0.00288833, 0.82160228, -0.90395677, 87.59500122, 1211.28613281, 39.36999893, 0.00000000
1, 2.9901, 299, 0.04587182, -0.88176978, -0.13593119, -10.08393288, 0.39131021, -3.02503681, 16.24490356, -55.15175247, 44.56372833, 2.07065105, 4.55688858, -17.87971306, 0.98679829, -0.02401219, -0.03646086, 0.15595897, 0.03339469, 0.84505695, -0.86024588, 87.59500122, 1211.28613281, 39.36999893, 0.00000000
1, 3.0001, 300, 0.00712639, -0.86891925, -0.13813914, -11.50146103, 3.12831950, -2.11939836, 16.17177200, -56.64704514, 44.83018112, 1.95863509, 4.58360004, -17.85023689, 0.98685157, -0.02307412, -0.03684931, 0.15567188, 0.07260605, 0.83411860, -0.85806936, 87.59500122, 1211.28613281, 39.36999893, 0.00000000
1, 3.0101, 301, -0.00187999, -0.83174932, -0.14514008, -10.50356388, 8.49225521, -1.20107949, 16.97619438, -55.32767487, 44.94437027, 1.86226881, 4.61175251, -17.76646233, 0.98697376, -0.02225492, -0.03723899, 0.15492176, 0.08209638, 0.79874831, -0.85109085, 87.59500122, 1211.28613281, 39.36999893, 0.00000000
1, 3.0201, 302, 0.01817545, -0.79186928, -0.15005037, -9.59122372, 14.32473278, 0.41290572, 16.17177200, -55.37165070, 44.52566910, 1.78137851, 4.63559484, -17.62243843, 0.98717439, -0.02154296, -0.03758084, 0.15365674, 0.06249788, 0.76038283, -0.84619272, 87.59500122, 1211.28613281, 39.36999893, 0.00000000
1, 3.0301, 303, 0.04631960, -0.76349527, -0.13858597, -8.61932087, 18.44804382, 2.69390798, 16.57398224, -55.06379700, 44.41147995, 1.71149206, 4.64648342, -17.48633003, 0.98736513, -0.02091051, -0.03779323, 0.15246193, 0.03463527, 0.73325640, -0.85767293, 87.59500122, 1211.28613281, 39.36999893, 0.00000000
1, 3.0401, 304, 0.07518113, -0.74053264, -0.14321367, -7.62091970, 21.28131294, 5.17622566, 16.57398224, -55.06379700, 44.41147995, 1.65849245, 4.63773346, -17.26498985, 0.98767048, -0.02036927, -0.03782775, 0.15053636, 0.00575877, 0.71137208, -0.85307866, 87.59500122, 1211.28613281, 39.36999893, 0.00000000
1, 3.0501, 305, 0.09286936, -0.73792404, -0.13546349, -5.81859684, 23.28888321, 7.11137390, 16.79337120, -55.41563034, 44.96340561, 1.62587857, 4.61415815, -17.02051163, 0.98800385, -0.01997702, -0.03771006, 0.14841640, -0.01225290, 0.70945692, -0.86087513, 87.59500122, 1211.28613281, 39.36999893, 0.00000000
1, 3.0601, 306, 0.10650655, -0.75101537, -0.10990136, -6.51907921, 25.59783363, 8.30465031, 16.90306282, -55.63552475, 45.00146484, 1.58879471, 4.58361149, -16.75075912, 0.98836792, -0.01952970, -0.03754075, 0.14607589, -0.02638901, 0.72311825, -0.88649362, 87.59500122, 1211.28613281, 39.36999893, 0.00000000
1, 3.0701, 307, 0.12111404, -0.75690585, -0.09169219, -8.46397114, 27.54560280, 8.94921398, 17.34183884, -56.69102859, 45.00146484, 1.53426027, 4.55083609, -16.46010780, 0.98875618, -0.01892312, -0.03737564, 0.14354844, -0.04155520, 0.72984159, -0.90477049, 87.59500122, 1211.28613281, 39.36999893, 0.00000000
1, 3.0801, 308, 0.13347276, -0.75625592, -0.09047566, -12.51820278, 30.15700912, 9.98332787, 16.72023964, -56.86694336, 45.07759476, 1.44177055, 4.51897144, -16.18487740, 0.98912442, -0.01799599, -0.03725983, 0.14114104, -0.05450408, 0.73053765, -0.90606958, 87.59500122, 1211.28613281, 39.36999893, 0.00000000
1, 3.0901, 309, 0.14308819, -0.76120621, -0.09837515, -16.69258308, 33.68895340, 11.33599281, 16.72023964, -56.86694336, 45.07759476, 1.31146944, 4.47618246, -15.82699490, 0.98959523, -0.01670310, -0.03710325, 0.13800648, -0.06475317, 0.73751026, -0.89827007, 87.59500122, 1211.28613281, 39.36999893, 0.00000000
1, 3.1001, 310, 0.13722524, -0.77268964, -0.10458290, -19.18400764, 35.31028366, 12.80154705, 17.01275826, -56.29521561, 45.91500854, 1.15795612, 4.42322826, -15.44949055, 0.99008417, -0.01519256, -0.03688097, 0.13469355, -0.05973957, 0.75150865, -0.89218515, 87.59500122, 1211.28613281, 39.36999893, 0.00000000
1, 3.1101, 311, 0.11922728, -0.78536141, -0.10456264, -20.94347000, 36.43078995, 14.81683731, 16.72023964, -56.38317490, 45.68662262, 0.98802477, 4.35395575, -15.05626965, 0.99058545, -0.01351806, -0.03652868, 0.13123824, -0.04283037, 0.76703429, -0.89234602, 87.59500122, 1211.28613281, 39.36999893, 0.00000000
1, 3.1201, 312, 0.09928285, -0.78736573, -0.11014856, -20.92824554, 37.11380386, 17.15148544, 17.04932022, -55.45960999, 45.81984329, 0.81887484, 4.26446867, -14.65124893, 0.99109161, -0.01182667, -0.03599073, 0.12768032, -0.02430935, 0.77202660, -0.88691854, 87.59500122, 1211.28613281, 39.36999893, 0.00000000
1, 3.1301, 313, 0.09133954, -0.77101225, -0.11257956, -19.21251106, 38.86423874, 19.02876091, 16.24490356, -57.52663422, 46.20048523, 0.66736454, 4.16421556, -14.26485634, 0.99156374, -0.01028591, -0.03532725, 0.12428895, -0.01808334, 0.75843555, -0.88465393, 87.59500122, 1211.28613281, 39.36999893, 0.00000000
1, 3.1401, 314, 0.08791289, -0.74750781, -0.10986392, -16.57484818, 41.31047440, 18.65023804, 16.24490356, -57.52663422, 46.20048523, 0.54455930, 4.07128429, -13.81622791, 0.99208236, -0.00898703, -0.03469169, 0.12036771, -0.01633916, 0.73727071, -0.88751858, 87.59500122, 1211.28613281, 39.36999893, 0.00000000
1, 3.1501, 315, 0.08386029, -0.73983943, -0.07333107, -14.26787186, 44.23769379, 15.96250439, 16.35459518, -55.41563034, 46.46693420, 0.44633093, 4.01180983, -13.34523964, 0.99259430, -0.00793333, -0.03431282, 0.11625940, -0.01356437, 0.73144555, -0.92415965, 87.59500122, 1211.28613281, 39.36999893, 0.00000000
1, 3.1601, 316, 0.09543369, -0.75729167, -0.02991551, -13.65231895, 46.22960281, 12.99660778, 17.15901566, -56.47113037, 46.94273376, 0.35512304, 3.98642373, -12.86137581, 0.99309003, -0.00697317, -0.03421520, 0.11203995, -0.02578145, 0.75050408, -0.96763265, 87.59500122, 1211.28613281, 39.36999893, 0.00000000
1, 3.1701, 317, 0.10869725, -0.78786767, 0.01013221, -14.70072460, 47.32485580, 11.61657715, 16.57398224, -56.73500824, 46.67628860, 0.25402898, 3.97771096, -12.36958313, 0.99357003, -0.00594155, -0.03426433, 0.10774675, -0.03928593, 0.78277677, -1.00770724, 87.59500122, 1211.28613281, 39.36999893, 0.00000000
1, 3.1801, 318, 0.12045845, -0.82365763, 0.02908052, -15.71355534, 48.05225754, 11.77559566, 16.28146744, -56.33919525, 47.15208435, 0.15171421, 3.97395062, -11.90958309, 0.99400043, -0.00491305, -0.03434791, 0.10372688, -0.05114760, 0.82038927, -1.02667022, 87.59500122, 1211.28613281, 39.36999893, 0.00000000
1, 3.1901, 319, 0.10668917, -0.85806429, 0.02705273, -16.64573669, 48.37094116, 12.83984566, 16.28146744, -56.33919525, 47.15208435, 0.03230272, 3.95748520, -11.40433311, 0.99445754, -0.00371101, -0.03432985, 0.09930779, -0.03755478, 0.85671079, -1.02465892, 87.59500122, 1211.28613281, 39.36999893, 0.00000000
1, 3.2001, 320, 0.11306494, -0.85969150, 0.00818811, -20.05037308, 48.98106766, 14.84944057, 17.56122208, -56.77898788, 47.55176163, -0.12034361, 3.92403221, -10.88770485, 0.99490899, -0.00220322, -0.03418208, 0.09477878, -0.04438743, 0.86074567, -1.00582612, 87.59500122, 1211.28613281, 39.36999893, 0.00000000
1, 3.2101, 321, 0.14519121, -0.86262745, -0.01206613, -20.31259155, 48.40738678, 17.29914665, 16.64711380, -58.18632126, 48.12272263, -0.27598789, 3.86682320, -10.37090683, 0.99534488, -0.00065200, -0.03381736, 0.09024706, -0.07734332, 0.86643386, -0.98562193, 87.59500122, 1211.28613281, 39.36999893, 0.00000000
1, 3.2201, 322, 0.17109360, -0.90904409, -0.00227008, -19.72288895, 45.75699615, 19.12249756, 16.39115906, -58.18632126, 48.35110474, -0.42832789, 3.78707433, -9.87573719, 0.99574828, 0.00087783, -0.03324113, 0.08590474, -0.10449676, 0.91547477, -0.99548882, 87.59500122, 1211.28613281, 39.36999893, 0.00000000
1, 3.2301, 323, 0.18591726, -0.89982802, 0.01709588, -22.23617935, 41.14691162, 19.66608620, 16.13521194, -58.36223602, 47.97046280, -0.60149556, 3.70045900, -9.46229839, 0.99607337, 0.00256540, -0.03260924, 0.08226726, -0.12085228, 0.90922755, -1.01493216, 87.59500122, 1211.28613281, 39.36999893, 0.00000000
1, 3.2401, 324, 0.20958720, -0.94019723, 0.01617271, -20.78803635, 37.36744690, 18.50992203, 16.13521194, -58.36223602, 47.97046280, -0.77324414, 3.60961246, -9.04960155, 0.99638295, 0.00423884, -0.03192779, 0.07863780, -0.14605829, 0.95252591, -1.01407611, 87.59500122, 1211.28613281, 39.36999893, 0.00000000
1, 3.2501, 325, 0.22623630, -0.98177224, 0.00968744, -22.05376434, 31.73277092, 15.10818768, 16.42772484, -57.70254898, 48.78883743, -0.96362549, 3.53949523, -8.69934559, 0.99662864, 0.00603872, -0.03143043, 0.07554539, -0.16408622, 0.99727380, -1.00763333, 87.59500122, 1211.28613281, 39.36999893, 0.00000000
1, 3.2601, 326, 0.26330340, -1.02133083, -0.02508271, -22.37355042, 26.64148521, 10.39661026, 16.24490356, -58.49417496, 48.21787643, -1.16271245, 3.50382686, -8.40978146, 0.99681354, 0.00787285, -0.03123164, 0.07297590, -0.20200050, 1.04027951, -0.97285610, 87.59500122, 1211.28613281, 39.36999893, 0.00000000
1, 3.2701, 327, 0.30631298, -1.07252765, -0.03104137, -20.64514542, 20.37467575, 6.14624500, 15.84269142, -58.01040649, 48.40819931, -1.35071373, 3.49480271, -8.19186783, 0.99693847, 0.00957348, -0.03125468, 0.07102996, -0.24532431, 1.09482098, -0.96684766, 87.59500122, 1211.28613281, 39.36999893, 0.00000000
1, 3.2801, 328, 0.34723294, -1.13380504, 0.00176543, -18.59575653, 13.06804943, 2.68163967, 15.76956558, -57.96642685, 48.38916779, -1.51108015, 3.51956749, -8.11016178, 0.99696809, 0.01097564, -0.03156167, 0.07027200, -0.28613877, 1.15920115, -0.99957401, 87.59500122, 1211.28613281, 39.36999893, 0.00000000
1, 3.2901, 329, 0.37243018, -1.21017444, 0.03355386, -15.40499687, 8.56427574, 0.46779332, 16.46429062, -59.63763428, 48.04659271, -1.65765512, 3.53681350, -8.02227592, 0.99700236, 0.01226454, -0.03179217, 0.06946445, -0.31085092, 1.23813963, -1.03126395, 87.59500122, 1211.28613281, 39.36999893, 0.00000000
1, 3.3001, 330, 0.35834083, -1.30509675, 0.09037951, -10.47457790, 3.23859668, 0.04190984, 16.46429062, -59.63763428, 48.04659271, -1.75951290, 3.54474330, -7.98828888, 0.99700952, 0.01315534, -0.03191899, 0.06913924, -0.29655018, 1.33513820, -1.08801627, 87.59500122, 1211.28613281, 39.36999893, 0.00000000
1, 3.3101, 331, 0.30888855, -1.38326156, 0.14395450, -4.47449970, -2.12068486, 0.08666123, 16.75680542, -58.97794724, 48.38916779, -1.80592203, 3.53849268, -8.00751495, 0.99699414, 0.01355760, -0.03189488, 0.06929456, -0.24711238, 1.41452897, -1.14155471, 87.59500122, 1211.28613281, 39.36999893, 0.00000000
1, 3.3201, 332, 0.26257738, -1.42358994, 0.19835813, 3.24556732, -7.44711542, -1.06848454, 16.50085640, -57.87847137, 48.04659271, -1.77994204, 3.52968359, -8.08314610, 0.99695349, 0.01331597, -0.03181133, 0.06996116, -0.20095959, 1.45482039, -1.19596910, 87.59500122, 1211.28613281, 39.36999893, 0.00000000
1, 3.3301, 333, 0.26794633, -1.44094145, 0.22149180, 8.62672806, -11.67041588, -3.65228128, 16.64711380, -58.01040649, 47.93240356, -1.69954538, 3.54041314, -8.26595592, 0.99684691, 0.01255904, -0.03187566, 0.07157224, -0.20633388, 1.47115135, -1.21913457, 87.59500122, 1211.28613281, 39.36999893, 0.00000000
1, 3.3401, 334, 0.27823633, -1.52873051, 0.14959203, 8.70859146, -9.50432396, -7.03476191, 17.23214340, -58.67009354, 48.40819931, -1.62204647, 3.58421350, -8.37802696, 0.99677324, 0.01182566, -0.03221983, 0.07256243, -0.21608531, 1.55749178, -1.14724422, 87.59500122, 1211.28613281, 39.36999893, 0.00000000
1, 3.3501, 335, 0.21626285, -1.71280158, -0.00224685, 6.54860592, -2.17240953, -13.65923500, 17.23214340, -58.67009354, 48.40819931, -1.56146264, 3.71080756, -8.43529606, 0.99670899, 0.01120091, -0.03328815, 0.07306000, -0.15251927, 1.74034905, -0.99533892, 87.59500122, 1211.28613281, 39.36999893, 0.00000000
1, 3.3601, 336, 0.04640406, -1.80711615, -0.07311501, 7.04077673, -4.13688564, -24.56543541, 16.39115906, -57.57061386, 48.04659271, -1.50032735, 3.93803835, -8.53919220, 0.99658406, 0.01049061, -0.03523495, 0.07395061, 0.02065734, 1.83371854, -0.92427838, 87.59500122, 1211.28613281, 39.36999893, 0.00000000
1, 3.3701, 337, 0.10621948, -1.68442273, -0.11410405, 7.92012739, 1.39897740, -33.25847244, 16.42772484, -55.76746750, 48.25594330, -1.42772174, 4.26342535, -8.61116505, 0.99644524, 0.00962277, -0.03802367, 0.07455596, -0.03412134, 1.70966268, -0.88297272, 87.59500122, 1211.28613281, 39.36999893, 0.00000000
1, 3.3801, 338, 0.13786574, -1.58117044, -0.27113718, -0.72489321, 11.88235855, -32.04481506, 16.61054802, -55.23971176, 48.44626236, -1.43445659, 4.60523987, -8.62662792, 0.99632239, 0.00945061, -0.04100124, 0.07464230, -0.05974981, 1.60594046, -0.72549796, 87.59500122, 1211.28613281, 39.36999893, 0.00000000
1, 3.3901, 339, 0.05326651, -1.56846356, -0.51457930, -7.75100279, 14.28782177, -26.08401108, 17.08588600, -56.91092300, 48.33206940, -1.50381291, 4.89363480, -8.55173397, 0.99626350, 0.00989162, -0.04354706, 0.07392561, 0.03023175, 1.59413779, -0.48159683, 87.59500122, 1211.28613281, 39.36999893, 0.00000000
1, 3.4001, 340, 0.05007049, -1.44035947, -0.36176124, 0.73028743, 4.63880491, -23.79912186, 17.08588600, -56.91092300, 48.33206940, -1.49807966, 5.13562918, -8.56700611, 0.99616402, 0.00967720, -0.04564829, 0.07402616, 0.03789379, 1.46664453, -0.63401490, 87.59500122, 1211.28613281, 39.36999893, 0.00000000
1, 3.4101, 341, 0.19379796, -1.15821898, -0.24847914, 11.56828308, -0.27807432, -21.19344139, 17.52466202, -55.76746750, 47.66595078, -1.38904917, 5.34002686, -8.62588024, 0.99605501, 0.00857098, -0.04735891, 0.07455369, -0.10196772, 1.18317950, -0.74698198, 87.59500122, 1211.28613281, 39.36999893, 0.00000000
1, 3.4201, 342, 0.31697744, -0.90810746, -0.16334270, 25.98195839, -14.69019985, -14.38617039, 17.59778786, -54.18421173, 48.12272263, -1.15095210, 5.44288206, -8.81093407, 0.99590743, 0.00635584, -0.04810821, 0.07624817, -0.22263283, 0.92985272, -0.83195847, 87.59500122, 1211.28613281, 39.36999893, 0.00000000
1, 3.4301, 343, 0.45048344, -0.77701235, -0.05285509, 43.15153885, -36.34046555, -6.45628977, 17.41496468, -54.00829697, 48.08465195, -0.75833005, 5.43690920, -9.22656536, 0.99564207, 0.00277420, -0.04780514, 0.08002487, -0.35566613, 0.79301369, -0.94250894, 87.59500122, 1211.28613281, 39.36999893, 0.00000000
1, 3.4401, 344, 0.51025718, -0.76943463, 0.09535603, 54.81969070, -47.32632828, -1.67798269, 17.81717682, -54.66798401, 47.76111221, -0.26649562, 5.34194851, -9.70570660, 0.99533933, -0.00162749, -0.04662975, 0.08439690, -0.41650003, 0.77726269, -1.09091735, 87.59500122, 1211.28613281, 39.36999893, 0.00000000
1, 3.4501, 345, 0.45765859, -0.80429047, 0.08560879, 50.72165298, -47.69920731, -0.75921053, 17.81717682, -54.66798401, 47.76111221, 0.18504454, 5.24108553, -10.18607807, 0.99500245, -0.00566557, -0.04539736, 0.08875385, -0.36567265, 0.80399507, -1.08136654, 87.59500122, 1211.28613281, 39.36999893, 0.00000000
1, 3.4601, 346, 0.35314929, -0.91751754, 0.00042689, 43.01626968, -45.06998062, -1.52411568, 17.41496468, -53.96431732, 47.66595078, 0.56321555, 5.15699816, -10.64118862, 0.99465084, -0.00906046, -0.04433843, 0.09285360, -0.26274738, 0.91001344, -0.99630237, 87.59500122, 1211.28613281, 39.36999893, 0.00000000
1, 3.4701, 347, 0.17728226, -1.06097651, -0.13528833, 25.81866455, -37.20388412, -3.87255168, 16.72023964, -52.82085800, 47.41853714, 0.77847612, 5.11504078, -11.02049255, 0.99433553, -0.01104000, -0.04376341, 0.09622760, -0.08792025, 1.04861712, -0.86063373, 87.59500122, 1211.28613281, 39.36999893, 0.00000000
1, 3.4801, 348, -0.13359325, -1.23357522, -0.30653241, 16.31341934, -35.69511795, -7.30982924, 17.08588600, -52.20515060, 47.13305664, 0.89573866, 5.10375214, -11.43536186, 0.99397314, -0.01220575, -0.04352305, 0.09987125, 0.22263804, 1.21871090, -0.68938410, 87.59500122, 1211.28613281, 39.36999893, 0.00000000
1, 3.4901, 349, -0.45458865, -1.36421883, -0.21356219, 8.81201649, -37.20623016, -9.79718781, 17.56122208, -54.09625626, 47.03789520, 0.94003254, 5.12125874, -11.82326984, 0.99361765, -0.01275274, -0.04359339, 0.10325274, 0.54370391, 1.34800029, -0.78232706, 87.59500122, 1211.28613281, 39.36999893, 0.00000000
1, 3.5001, 350, -0.52476978, -1.27745986, -0.13173963, -9.09122181, -15.57968044, -4.96347046, 17.56122208, -54.09625626, 47.03789520, 0.83082163, 5.13693237, -11.98444366, 0.99347699, -0.01188144, -0.04381102, 0.10460894, 0.61425793, 1.26211023, -0.86412978, 87.59500122, 1211.28613281, 39.36999893, 0.00000000
1, 3.5101, 351, -0.33080447, -1.10339320, -0.33581394, -13.68190193, 3.41198683, 10.03984737, 17.30527306, -52.38106537, 47.05693054, 0.70056087, 5.04610205, -11.92616844, 0.99357843, -0.01064772, -0.04314778, 0.10405266, 0.41961861, 1.09039068, -0.66014910, 87.59500122, 1211.28613281, 39.36999893, 0.00000000
1, 3.5201, 352, -0.22281781, -1.04386520, -0.43983579, -10.98858738, 5.62561178, 25.10760117, 16.79337120, -52.86483765, 46.56209564, 0.60301352, 4.81299353, -11.81414509, 0.99377638, -0.00955094, -0.04122430, 0.10304289, 0.30840677, 1.03286600, -0.55643320, 87.59500122, 1211.28613281, 39.36999893, 0.00000000
1, 3.5301, 353, -0.14429857, -1.05357468, -0.49864623, -7.75809097, 8.90134907, 33.12955856, 16.35459518, -53.65646362, 46.54306412, 0.52215040, 4.50031805, -11.70191097, 0.99399483, -0.00853180, -0.03859349, 0.10203932, 0.22493879, 1.04383588, -0.49804813, 87.59500122, 1211.28613281, 39.36999893, 0.00000000
1, 3.5401, 354, -0.03404565, -1.04808259, -0.55426270, -2.59665823, 6.51125145, 34.85650253, 16.82993698, -55.28369522, 47.03789520, 0.51023054, 4.17426538, -11.56155396, 0.99422836, -0.00809521, -0.03578553, 0.10081600, 0.10895351, 1.03923726, -0.44288731, 87.59500122, 1211.28613281, 39.36999893, 0.00000000
1, 3.5501, 355, 0.04224167, -1.08143878, -0.52514625, 1.77705538, 6.06567335, 32.68920517, 16.82993698, -55.28369522, 47.03789520, 0.54031295, 3.86836553, -11.43147850, 0.99443448, -0.00805036, -0.03311394, 0.09969357, 0.02718242, 1.07222140, -0.47239730, 87.59500122, 1211.28613281, 39.36999893, 0.00000000
1, 3.5601, 356, 0.05443949, -1.15022957, -0.48907635, 0.28210774, 6.26163435, 30.46544647, 16.46429062, -56.69102859, 46.44789886, 0.55454117, 3.58454204, -11.30413055, 0.99462503, -0.00789362, -0.03064713, 0.09858850, 0.00992154, 1.14062166, -0.50880313, 87.59500122, 1211.28613281, 39.36999893, 0.00000000
1, 3.5701, 357, 0.04624658, -1.18546581, -0.45385012, -0.49176127, 2.89622521, 30.22127724, 15.84269142, -56.47113037, 46.46693420, 0.55761170, 3.29578710, -11.21008968, 0.99478185, -0.00764949, -0.02814429, 0.09776822, 0.01314621, 1.17573500, -0.54433620, 87.59500122, 1211.28613281, 39.36999893, 0.00000000
1, 3.5801, 358, 0.03021142, -1.21816087, -0.41096848, -3.75158978, 5.27378273, 32.30274582, 15.47705078, -55.37165070, 46.39080429, 0.51975423, 2.99227953, -11.13844395, 0.99491870, -0.00704661, -0.02554605, 0.09713203, 0.02399363, 1.20874977, -0.58751583, 87.59500122, 1211.28613281, 39.36999893, 0.00000000
1, 3.5901, 359, -0.00000350, -1.23345828, -0.43608445, -4.29644346, 8.08989525, 36.16053391, 15.47705078, -56.86694336, 46.40983963, 0.48850918, 2.65692949, -10.97963428, 0.99512720, -0.00646030, -0.02266972, 0.09574062, 0.04861357, 1.22469974, -0.56269360, 87.59500122, 1211.28613281, 39.36999893, 0.00000000
1, 3.6001, 360, -0.03765888, -1.19317102, -0.46085244, -3.79656553, 8.11106205, 41.45051956, 14.63606358, -58.67009354, 46.63821793, 0.46206385, 2.27009678, -10.80902290, 0.99534369, -0.00587927, -0.01934110, 0.09424695, 0.07988331, 1.18496966, -0.53822017, 87.59500122, 1211.28613281, 39.36999893, 0.00000000
1, 3.6101, 361, -0.02959535, -1.15129781, -0.46406409, 0.41274664, 5.07987642, 46.27825546, 14.63606358, -58.67009354, 46.63821793, 0.47531399, 1.82955372, -10.65847588, 0.99553585, -0.00561224, -0.01551083, 0.09293196, 0.06446560, 1.14313769, -0.53529209, 87.59500122, 1211.28613281, 39.36999893, 0.00000000
1, 3.6201, 362, 0.00379170, -1.11257255, -0.48419049, -0.27526057, 3.08654690, 49.29708481, 15.33078861, -60.20936584, 46.54306412, 0.47983819, 1.35517454, -10.52077007, 0.99570549, -0.00525365, -0.01139206, 0.09172418, 0.02299921, 1.10421431, -0.51541293, 87.59500122, 1211.28613281, 39.36999893, 0.00000000
1, 3.6301, 363, 0.04709227, -1.07026303, -0.51578259, -3.39260435, 1.49132216, 48.81604767, 14.12416077, -61.48476028, 46.99982834, 0.43184444, 0.88577259, -10.44304562, 0.99581093, -0.00445625, -0.00735466, 0.09103230, -0.02861868, 1.06224585, -0.48401195, 87.59500122, 1211.28613281, 39.36999893, 0.00000000
1, 3.6401, 364, 0.05310020, -1.01649940, -0.57225317, -1.88313627, -3.06892300, 45.04169083, 13.50256634, -59.90151215, 46.63821793, 0.41561505, 0.43957064, -10.37387085, 0.99588990, -0.00395883, -0.00349234, 0.09041806, -0.04255003, 1.00922430, -0.42766243, 87.59500122, 1211.28613281, 39.36999893, 0.00000000
1, 3.6501, 365, 0.01643257, -0.97391957, -0.51364219, 1.64803290, -9.08492661, 39.94732285, 13.28317833, -60.20936584, 46.08629227, 0.43217891, 0.02990316, -10.37542629, 0.99589670, -0.00377961, 0.00008113, 0.09041932, -0.01327272, 0.96648240, -0.48632318, 87.59500122, 1211.28613281, 39.36999893, 0.00000000
1, 3.6601, 366, 0.02172166, -0.88992435, -0.46159896, 3.76184273, -13.92037773, 35.44461823, 13.28317833, -60.20936584, 46.08629227, 0.46865392, -0.34638420, -10.43466759, 0.99584520, -0.00379793, 0.00338211, 0.09092035, -0.02534903, 0.88202143, -0.53836161, 87.59500122, 1211.28613281, 39.36999893, 0.00000000
1, 3.6701, 367, 0.03230783, -0.84037983, -0.40448344, 8.59367085, -17.36011505, 31.89458847, 13.39287472, -61.04496765, 46.44789886, 0.55320203, -0.69545215, -10.53676701, 0.99574828, -0.00424985, 0.00648648, 0.09178916, -0.04219151, 0.83130437, -0.59542501, 87.59500122, 1211.28613281, 39.36999893, 0.00000000
1, 3.6801, 368, 0.01320265, -0.75606310, -0.36676550, 9.39215851, -21.42319870, 29.92584801, 12.73470974, -63.33188629, 46.54306412, 0.62988186, -1.03065813, -10.72255421, 0.99557471, -0.00463211, 0.00946815, 0.09338102, -0.02903118, 0.74557173, -0.63305283, 87.59500122, 1211.28613281, 39.36999893, 0.00000000
1, 3.6901, 369, 0.00953624, -0.73777175, -0.31892180, 15.71841240, -22.81307793, 29.78937721, 11.82060146, -63.50780487, 45.72468567, 0.78670985, -1.37045276, -10.88537884, 0.99540472, -0.00569954, 0.01255610, 0.09475926, -0.03123043, 0.72506911, -0.68076050, 87.59500122, 1211.28613281, 39.36999893, 0.00000000
1, 3.7001, 370, -0.01684373, -0.69083363, -0.26625937, 22.88244438, -21.81340027, 29.78847313, 11.52808189, -63.68372726, 45.76274872, 1.01618421, -1.70758009, -11.04128647, 0.99522471, -0.00739218, 0.01568422, 0.09605837, -0.01075778, 0.67469603, -0.73322737, 87.59500122, 1211.28613281, 39.36999893, 0.00000000
1, 3.7101, 371, -0.02539458, -0.66760081, -0.21729515, 30.60655594, -18.19387627, 30.40343857, 11.52808189, -63.68372726, 45.76274872, 1.32356560, -2.04248500, -11.16395187, 0.99505371, -0.00975990, 0.01886068, 0.09704298, -0.00805283, 0.64661956, -0.78192258, 87.59500122, 1211.28613281, 39.36999893, 0.00000000
1, 3.7201, 372, -0.05217163, -0.63615489, -0.22385433, 36.32324600, -17.63298416, 30.30985069, 11.56464767, -63.68372726, 45.72468567, 1.68885493, -2.37457705, -11.28463936, 0.99486339, -0.01262596, 0.02206662, 0.09798226, 0.01291278, 0.60926634, -0.77500987, 87.59500122, 1211.28613281, 39.36999893, 0.00000000
1, 3.7301, 373, -0.07591277, -0.66676456, -0.22851759, 47.23931122, -23.52262115, 30.50418854, 11.01617908, -65.09105682, 45.89597321, 2.16101146, -2.72030783, -11.49694252, 0.99455881, -0.01638004, 0.02550160, 0.09967010, 0.03075526, 0.63229382, -0.76986307, 87.59500122, 1211.28613281, 39.36999893, 0.00000000
1, 3.7401, 374, -0.13573408, -0.66553456, -0.11821117, 50.37525940, -25.75060272, 30.78174210, 10.35801888, -64.60728455, 45.68662262, 2.67078543, -3.06998491, -11.70535564, 0.99422407, -0.02044428, 0.02901616, 0.10128562, 0.08446521, 0.62242562, -0.87953818, 87.59500122, 1211.28613281, 39.36999893, 0.00000000
1, 3.7501, 375, -0.16524339, -0.62632358, -0.10902184, 49.33166504, -23.18340874, 30.69828033, 10.02893925, -65.70676422, 46.12435913, 3.17072535, -3.41244054, -11.89153957, 0.99388421, -0.02442213, 0.03246783, 0.10268219, 0.10793822, 0.57431680, -0.88797504, 87.59500122, 1211.28613281, 39.36999893, 0.00000000
1, 3.7601, 376, -0.16670997, -0.58708161, -0.09303385, 51.46500778, -22.52209091, 29.03571892, 10.02893925, -65.70676422, 46.12435913, 3.69316363, -3.73566604, -12.07760811, 0.99351692, -0.02860033, 0.03578451, 0.10404700, 0.10363261, 0.52619565, -0.90311128, 87.59500122, 1211.28613281, 39.36999893, 0.00000000
1, 3.7701, 377, -0.15698640, -0.53614557, -0.09717774, 53.83914185, -23.68019485, 25.40055084, 10.43115044, -65.88268280, 46.25758362, 4.24124432, -4.02307224, -12.28450966, 0.99310517, -0.03301517, 0.03883212, 0.10556676, 0.08865198, 0.46603203, -0.89801323, 87.59500122, 1211.28613281, 39.36999893, 0.00000000
1, 3.7801, 378, -0.15270926, -0.48602179, -0.05984955, 55.54340744, -27.02816963, 21.03584290, 9.51703644, -68.78530884, 46.46693420, 4.80713749, -4.27203512, -12.56119347, 0.99260449, -0.03758333, 0.04160031, 0.10767175, 0.07979307, 0.40606815, -0.93427408, 87.59500122, 1211.28613281, 39.36999893, 0.00000000
1, 3.7901, 379, -0.14043638, -0.44054687, -0.02975947, 57.02075577, -27.30934906, 16.85935020, 9.33421421, -68.08164215, 46.14338684, 5.39164925, -4.47568130, -12.82255745, 0.99209428, -0.04234843, 0.04400858, 0.10963081, 0.06366203, 0.35070935, -0.96322882, 87.59500122, 1211.28613281, 39.36999893, 0.00000000
1, 3.8001, 380, -0.08995730, -0.45643008, 0.03578405, 57.20376205, -29.55994797, 12.87393379, 8.85887623, -68.12562561, 45.93403625, 5.98045492, -4.63999176, -13.11366940, 0.99153435, -0.04716580, 0.04611279, 0.11184187, 0.01008511, 0.35635394, -1.02754831, 87.59500122, 1211.28613281, 39.36999893, 0.00000000
1, 3.8101, 381, -0.02583989, -0.45152304, 0.02756594, 53.25029755, -30.04060936, 9.92276955, 8.85887623, -68.12562561, 45.93403625, 6.53095722, -4.77273464, -13.41383457, 0.99096119, -0.05166858, 0.04793274, 0.11414430, -0.05654293, 0.34169990, -1.01809323, 87.59500122, 1211.28613281, 39.36999893, 0.00000000
1, 3.8201, 382, -0.00728732, -0.44405907, 0.10662007, 43.58430481, -30.11004829, 7.43718815, 8.82231140, -67.81777191, 45.93403625, 6.98546600, -4.87854242, -13.71632576, 0.99041235, -0.05535843, 0.04944563, 0.11650775, -0.07709942, 0.32556421, -1.09598005, 87.59500122, 1211.28613281, 39.36999893, 0.00000000
1, 3.8301, 383, 0.03778047, -0.42862982, 0.06627014, 41.15722656, -27.84796906, 6.45505238, 8.93200493, -69.57693481, 46.37177277, 7.41680241, -4.96416998, -14.02633858, 0.98985279, -0.05885787, 0.05078266, 0.11894740, -0.12380668, 0.30279967, -1.05458260, 87.59500122, 1211.28613281, 39.36999893, 0.00000000
1, 3.8401, 384, 0.06298723, -0.42732599, 0.09849246, 30.34696960, -33.51872253, 5.98218632, 9.11482811, -69.84081268, 46.75241470, 7.74201965, -5.05483818, -14.36267853, 0.98930120, -0.06141566, 0.05208300, 0.12164985, -0.15050170, 0.29516119, -1.08584809, 87.59500122, 1211.28613281, 39.36999893, 0.00000000
1, 3.8501, 385, 0.06026136, -0.43048856, 0.09736311, 26.07901573, -34.60636139, 5.39229441, 8.34697151, -69.31305695, 46.01016235, 8.02577782, -5.13894272, -14.70994091, 0.98874754, -0.06361030, 0.05330249, 0.12446243, -0.14929157, 0.29309201, -1.08386898, 87.59500122, 1211.28613281, 39.36999893, 0.00000000
