SensorId, TimeStamp (s), FrameNumber, AccX (g), AccY (g), AccZ (g), GyroX (deg/s), GyroY (deg/s), GyroZ (deg/s), MagX (uT), MagY (uT), MagZ (uT), EulerX (deg), EulerY (deg), EulerZ (deg), QuatW, QuatX, QuatY, QuatZ, LinAccX (g), LinAccY (g), LinAccZ (g), Pressure (kPa), Altitude (m), Temperature (degC), HeaveMotion (m)
1, -0.0001, 0, 0.02098443, -0.98692369, -0.22421621, 0.32368001, 0.31634030, 0.25779957, 9.33421421, -66.67430878, 55.94487381, -0.03851976, 0.98519325, 5.34715271, 0.99887449, 0.00073680, -0.00857229, -0.04664692, -0.00332907, 0.98732376, -0.77562785, 87.59300232, 1211.47338867, 39.43000031, 0.00000000
1, 0.0099, 1, 0.01902188, -0.98663211, -0.22325096, 0.35768941, 0.33176860, 0.38106799, 9.11482811, -67.37797546, 55.46907806, -0.03482403, 0.98218048, 5.35117340, 0.99887300, 0.00070366, -0.00854750, -0.04668170, -0.00186048, 0.98726392, -0.77660161, 87.59300232, 1211.47338867, 39.43000031, 0.00000000
1, 0.0199, 2, 0.01950496, -0.98665226, -0.22543038, 0.14433187, 0.21087056, 0.32644421, 9.18795681, -65.83870697, 55.52617264, -0.03330230, 0.97944713, 5.35392189, 0.99887216, 0.00068948, -0.00852428, -0.04670554, -0.00239280, 0.98724186, -0.77442300, 87.59300232, 1211.47338867, 39.43000031, 0.00000000
1, 0.0299, 3, 0.01958620, -0.98095071, -0.22735780, 0.36039957, -0.04645208, 0.42584297, 9.26108551, -68.60939789, 54.97424316, -0.02968711, 0.97518766, 5.35434532, 0.99887234, 0.00065627, -0.00848862, -0.04670897, -0.00253741, 0.98148692, -0.77249670, 87.59300232, 1211.47338867, 39.43000031, 0.00000000
1, 0.0399, 4, 0.01974014, -0.97626370, -0.22867633, 0.16311972, -0.15206243, 0.49453947, 9.26108551, -68.60939789, 54.97424316, -0.02806537, 0.97003084, 5.35390377, 0.99887288, 0.00064000, -0.00844434, -0.04670501, -0.00277637, 0.97676444, -0.77117968, 87.59300232, 1211.47338867, 39.43000031, 0.00000000
1, 0.0499, 5, 0.02120771, -0.97404677, -0.23067513, 0.32412654, -0.32461637, 0.63104564, 8.38353729, -68.12562561, 55.79262161, -0.08060800, 0.95014572, 5.29776907, 0.99889672, 0.00108585, -0.00825012, -0.04621950, -0.00440911, 0.97474492, -0.76918346, 87.59300232, 1211.47338867, 39.43000031, 0.00000000
1, 0.0599, 6, 0.02448208, -0.97558314, -0.23074268, 0.34157315, -0.32504880, 0.66613978, 8.45666599, -66.27849579, 55.56423569, -0.07723188, 0.94293761, 5.29598665, 0.99889791, 0.00105339, -0.00818866, -0.04620370, -0.00797107, 0.97695720, -0.76912004, 87.59300232, 1211.47338867, 39.43000031, 0.00000000
1, 0.0699, 7, 0.02844561, -0.98095882, -0.22830722, 0.21518958, -0.50042689, 0.83862257, 8.05445671, -68.08164215, 55.79262161, -0.07517138, 0.93366838, 5.29289865, 0.99889994, 0.00103147, -0.00810872, -0.04617661, -0.01208828, 0.98228109, -0.77155811, 87.59300232, 1211.47338867, 39.43000031, 0.00000000
1, 0.0799, 8, 0.03052438, -0.98862189, -0.22563183, 0.18202043, -0.93096036, 0.91756409, 9.04169655, -68.16960144, 56.05907059, -0.07354848, 0.92269069, 5.28577280, 0.99890351, 0.00101241, -0.00801374, -0.04611436, -0.01435078, 0.98991668, -0.77423656, 87.59300232, 1211.47338867, 39.43000031, 0.00000000
1, 0.0899, 9, 0.03035181, -0.99281049, -0.22304843, 0.05851450, -1.20696259, 0.94729596, 8.23727989, -65.39891052, 55.88777924, -0.07323959, 0.91082805, 5.27603102, 0.99890834, 0.00100427, -0.00791055, -0.04602939, -0.01437655, 0.99408299, -0.77682316, 87.59300232, 1211.47338867, 39.43000031, 0.00000000
1, 0.0999, 10, 0.02999330, -0.99241036, -0.22166491, -0.15322658, -1.58601165, 0.93997496, 8.23727989, -65.39891052, 55.88777924, -0.08702645, 0.90319550, 5.20515251, 0.99893701, 0.00111654, -0.00783917, -0.04541245, -0.01421597, 0.99375677, -0.77820975, 87.59300232, 1211.47338867, 39.43000031, 0.00000000
1, 0.1099, 11, 0.02795105, -0.98816222, -0.22230290, -0.45462576, -1.96576428, 0.93291336, 8.09102058, -66.01461792, 55.18359756, -0.09204736, 0.88982558, 5.18804646, 0.99894464, 0.00115386, -0.00772080, -0.04526362, -0.01233242, 0.98973018, -0.77757388, 87.59300232, 1211.47338867, 39.43000031, 0.00000000
1, 0.1199, 12, 0.02848377, -0.98420894, -0.22313024, -0.39449945, -2.39129639, 0.74800003, 9.04169655, -66.14656067, 55.46907806, -0.09658993, 0.87732953, 5.16637373, 0.99895394, 0.00118708, -0.00761030, -0.04507494, -0.01309080, 0.98585647, -0.77674997, 87.59300232, 1211.47338867, 39.43000031, 0.00000000
1, 0.1299, 13, 0.02851230, -0.98188555, -0.22351326, -0.67798811, -2.58022165, 0.62184733, 8.27384281, -67.99369049, 55.73552322, -0.10401598, 0.86566305, 5.14261532, 0.99896395, 0.00124567, -0.00750593, -0.04486826, -0.01333136, 0.98365015, -0.77636993, 87.59300232, 1211.47338867, 39.43000031, 0.00000000
1, 0.1399, 14, 0.02895524, -0.98447067, -0.22349618, -0.67365038, -2.92184424, 0.52676028, 8.89544010, -68.30153656, 55.31681824, -0.11149882, 0.85418576, 5.11532354, 0.99897528, 0.00130465, -0.00740326, -0.04463077, -0.01397233, 0.98637104, -0.77638978, 87.59300232, 1211.47338867, 39.43000031, 0.00000000
1, 0.1499, 15, 0.02838960, -0.98588109, -0.22351247, -0.70631844, -3.29977298, 0.53649312, 8.89544010, -68.30153656, 55.31681824, -0.12722264, 0.84391654, 5.02963209, 0.99900889, 0.00143226, -0.00730868, -0.04388466, -0.01360585, 0.98794901, -0.77637607, 87.59300232, 1211.47338867, 39.43000031, 0.00000000
1, 0.1599, 16, 0.02574410, -0.98780549, -0.22183214, -0.64881098, -3.57236314, 0.44269463, 9.15139103, -66.10257721, 55.10746765, -0.13461742, 0.83181888, 4.99580669, 0.99902248, 0.00148997, -0.00720082, -0.04359015, -0.01115048, 0.99010479, -0.77805877, 87.59300232, 1211.47338867, 39.43000031, 0.00000000
1, 0.1699, 17, 0.02428550, -0.98837346, -0.22394440, -0.77051163, -4.01960659, 0.45124263, 8.63948822, -65.48686981, 55.54520416, -0.14332947, 0.81866288, 4.95765066, 0.99903768, 0.00155857, -0.00708333, -0.04325794, -0.00991175, 0.99081337, -0.77594930, 87.59300232, 1211.47338867, 39.43000031, 0.00000000
1, 0.1799, 18, 0.02290070, -0.98551863, -0.22652359, -0.96633643, -4.12349701, 0.41450098, 8.89544010, -67.11410522, 55.64036560, -0.15403293, 0.80563617, 4.91842508, 0.99905312, 0.00164458, -0.00696629, -0.04291651, -0.00875392, 0.98813343, -0.77337289, 87.59300232, 1211.47338867, 39.43000031, 0.00000000
1, 0.1899, 19, 0.01917190, -0.98180026, -0.22801457, -1.28468084, -4.45021343, 0.30313644, 8.74918270, -66.67430878, 55.50713730, -0.16798624, 0.79297620, 4.87580538, 0.99906951, 0.00175895, -0.00685134, -0.04254565, -0.00524957, 0.98463666, -0.77188456, 87.59300232, 1211.47338867, 39.43000031, 0.00000000
1, 0.1999, 20, 0.01865806, -0.98033649, -0.22853275, -1.11861396, -4.72081280, 0.13873455, 8.74918270, -66.67430878, 55.50713730, -0.19063117, 0.77812010, 4.77573204, 0.99910682, 0.00194500, -0.00671511, -0.04167432, -0.00495986, 0.98344433, -0.77136856, 87.59300232, 1211.47338867, 39.43000031, 0.00000000
1, 0.2099, 21, 0.01809681, -0.97821361, -0.22833905, -1.11519742, -4.90748739, 0.01175132, 8.45666599, -67.07012177, 55.60229874, -0.20300475, 0.76727319, 4.72801638, 0.99912447, 0.00204618, -0.00661689, -0.04125887, -0.00463678, 0.98167431, -0.77156436, 87.59300232, 1211.47338867, 39.43000031, 0.00000000
1, 0.2199, 22, 0.01630282, -0.97864681, -0.22765407, -1.23983467, -4.92476511, -0.04096549, 8.12758541, -68.03766632, 55.48810959, -0.21663086, 0.75688833, 4.68002176, 0.99914205, 0.00215852, -0.00652234, -0.04084104, -0.00302618, 0.98233813, -0.77225101, 87.59300232, 1211.47338867, 39.43000031, 0.00000000
1, 0.2299, 23, 0.01702740, -0.97886300, -0.22875537, -1.34612036, -5.14945412, 0.00737091, 8.74918270, -67.72981262, 55.39294815, -0.23135237, 0.74551862, 4.62995100, 0.99916017, 0.00228003, -0.00641896, -0.04040512, -0.00393926, 0.98280573, -0.77115124, 87.59300232, 1211.47338867, 39.43000031, 0.00000000
1, 0.2399, 24, 0.01555211, -0.97873569, -0.22655523, -1.25774491, -5.11559153, 0.07812562, 8.42010212, -66.27849579, 55.01230621, -0.24517088, 0.73352587, 4.58035851, 0.99917799, 0.00239356, -0.00631055, -0.03997329, -0.00267551, 0.98292756, -0.77335304, 87.59300232, 1211.47338867, 39.43000031, 0.00000000
1, 0.2499, 25, 0.01534581, -0.97890782, -0.22745103, -1.04436624, -5.18538046, 0.25178853, 8.42010212, -66.27849579, 55.01230621, -0.26465067, 0.71526974, 4.47609425, 0.99921453, 0.00255146, -0.00614690, -0.03906488, -0.00271119, 0.98334593, -0.77245933, 87.59300232, 1211.47338867, 39.43000031, 0.00000000
1, 0.2599, 26, 0.01351160, -0.97951591, -0.22535239, -0.73593557, -5.57750225, 0.24260090, 8.78574562, -66.98216248, 55.14553452, -0.27332556, 0.70063376, 4.42231750, 0.99923342, 0.00261929, -0.00601755, -0.03859615, -0.00118474, 0.98423606, -0.77456051, 87.59300232, 1211.47338867, 39.43000031, 0.00000000
1, 0.2699, 27, 0.01230097, -0.98073357, -0.22266671, -0.69753969, -5.74760294, 0.16859405, 8.45666599, -68.08164215, 55.35488510, -0.28164855, 0.68633932, 4.36670351, 0.99925256, 0.00268420, -0.00589140, -0.03811136, -0.00022625, 0.98559523, -0.77724856, 87.59300232, 1211.47338867, 39.43000031, 0.00000000
1, 0.2799, 28, 0.00964230, -0.98108214, -0.22235979, -0.71337503, -5.76260376, 0.02770063, 9.51703644, -68.25756073, 55.25972366, -0.29013634, 0.67337567, 4.31063461, 0.99927157, 0.00275108, -0.00577688, -0.03762260, 0.00219481, 0.98609507, -0.77755761, 87.59300232, 1211.47338867, 39.43000031, 0.00000000
1, 0.2899, 29, 0.01055471, -0.98358762, -0.22310624, -0.56806862, -5.77662563, -0.09608692, 9.55360222, -66.85022736, 55.35488510, -0.29715842, 0.66158032, 4.25414324, 0.99929041, 0.00280564, -0.00567310, -0.03713008, 0.00106636, 0.98872733, -0.77681303, 87.59300232, 1211.47338867, 39.43000031, 0.00000000
1, 0.2999, 30, 0.01365345, -0.98312557, -0.22442290, -0.72789013, -5.94941950, -0.09923063, 9.55360222, -66.85022736, 55.35488510, -0.31249547, 0.64634025, 4.14141846, 0.99932688, 0.00292901, -0.00553811, -0.03614748, -0.00225277, 0.98843426, -0.77549803, 87.59300232, 1211.47338867, 39.43000031, 0.00000000
1, 0.3099, 31, 0.01318265, -0.98298806, -0.22390398, -0.58244383, -6.03262520, -0.18931653, 8.38353729, -66.14656067, 55.14553452, -0.31970608, 0.63486904, 4.08222628, 0.99934578, 0.00298547, -0.00543734, -0.03563136, -0.00202972, 0.98852199, -0.77601850, 87.59300232, 1211.47338867, 39.43000031, 0.00000000
1, 0.3199, 32, 0.01263317, -0.98449361, -0.22564381, -0.63483220, -6.18742180, -0.19241066, 8.96856880, -66.71829224, 54.86005402, -0.32746574, 0.62308198, 4.02153778, 0.99936485, 0.00304665, -0.00533375, -0.03510219, -0.00167872, 0.99016207, -0.77428013, 87.59300232, 1211.47338867, 39.43000031, 0.00000000
1, 0.3299, 33, 0.01117891, -0.98438931, -0.22587433, -0.65137881, -6.15125036, -0.31464776, 8.38353729, -67.59787750, 55.10746765, -0.33536941, 0.61255181, 3.96093011, 0.99938357, 0.00310959, -0.00524114, -0.03457373, -0.00042043, 0.99018431, -0.77405101, 87.59300232, 1211.47338867, 39.43000031, 0.00000000
1, 0.3399, 34, 0.00905108, -0.98402566, -0.22380272, -0.72135359, -6.23643160, -0.38653767, 9.80955124, -67.68582916, 54.91714859, -0.34398150, 0.60253829, 3.89933205, 0.99940228, 0.00317891, -0.00515292, -0.03403667, 0.00153239, 0.98996866, -0.77612364, 87.59300232, 1211.47338867, 39.43000031, 0.00000000
1, 0.3499, 35, 0.00574690, -0.98295850, -0.22300039, -0.93577260, -6.13319683, -0.50675935, 9.80955124, -67.68582916, 54.91714859, -0.35903502, 0.58661801, 3.78528738, 0.99943602, 0.00330049, -0.00501289, -0.03304228, 0.00464348, 0.98910165, -0.77692676, 87.59300232, 1211.47338867, 39.43000031, 0.00000000
1, 0.3599, 36, 0.00539407, -0.98431009, -0.22267550, -0.90044820, -6.04686499, -0.52263069, 9.69985962, -67.86174774, 55.35488510, -0.36937183, 0.57831264, 3.72526503, 0.99945325, 0.00338566, -0.00493925, -0.03251901, 0.00475251, 0.99068648, -0.77725267, 87.59300232, 1211.47338867, 39.43000031, 0.00000000
1, 0.3699, 37, 0.00639060, -0.98566931, -0.22452046, -0.93796009, -5.89305830, -0.50170404, 9.37077904, -66.54237366, 55.16456223, -0.38004291, 0.57013571, 3.66681170, 0.99946970, 0.00347393, -0.00486667, -0.03200942, 0.00361399, 0.99224007, -0.77540797, 87.59300232, 1211.47338867, 39.43000031, 0.00000000
1, 0.3799, 38, 0.00767378, -0.98439431, -0.22492807, -0.99470270, -5.75826406, -0.37564841, 9.59016514, -67.15808105, 54.76489258, -0.39125341, 0.56102085, 3.60995078, 0.99948555, 0.00356679, -0.00478581, -0.03151369, 0.00218020, 0.99115115, -0.77500063, 87.59300232, 1211.47338867, 39.43000031, 0.00000000
1, 0.3899, 39, 0.00657541, -0.98198628, -0.22396898, -0.74168295, -5.89265728, -0.43198296, 8.78574562, -67.02614594, 54.38425064, -0.39993566, 0.55214012, 3.55161715, 0.99950159, 0.00363768, -0.00470782, -0.03100500, 0.00312229, 0.98890889, -0.77596003, 87.59300232, 1211.47338867, 39.43000031, 0.00000000
1, 0.3999, 40, 0.00613416, -0.97858191, -0.22570318, -0.67101288, -5.91067934, -0.34468660, 8.96856880, -66.45441437, 54.32715607, -0.41444266, 0.53533649, 3.44028902, 0.99953145, 0.00375525, -0.00456097, -0.03003403, 0.00336470, 0.98567599, -0.77422655, 87.59300232, 1211.47338867, 39.43000031, 0.00000000
1, 0.4099, 41, 0.00527830, -0.97857481, -0.22697400, -0.65467137, -6.08579206, -0.11990006, 8.96856880, -66.45441437, 54.32715607, -0.42226446, 0.52296364, 3.38077211, 0.99954718, 0.00381792, -0.00445299, -0.02951482, 0.00393702, 0.98589456, -0.77295673, 87.59300232, 1211.47338867, 39.43000031, 0.00000000
1, 0.4199, 42, 0.00557538, -0.97781372, -0.23056521, -0.83304936, -6.19011545, -0.12154752, 8.96856880, -68.16960144, 54.42231750, -0.43188876, 0.51036614, 3.32026720, 0.99956286, 0.00389634, -0.00434268, -0.02898702, 0.00341397, 0.98528588, -0.76936644, 87.59300232, 1211.47338867, 39.43000031, 0.00000000
1, 0.4299, 43, 0.00782955, -0.97967726, -0.23015395, -0.83143324, -6.44826651, -0.07424483, 9.48047066, -67.33399963, 54.78392792, -0.44151974, 0.49672350, 3.25733614, 0.99957883, 0.00397458, -0.00422342, -0.02843800, 0.00092866, 0.98732293, -0.76977849, 87.59300232, 1211.47338867, 39.43000031, 0.00000000
1, 0.4399, 44, 0.00704907, -0.97988999, -0.22896403, -0.57645226, -6.77105379, -0.15212451, 9.18795681, -66.41043091, 54.38425064, -0.44865993, 0.48310879, 3.19106722, 0.99959528, 0.00403112, -0.00410522, -0.02785974, 0.00146779, 0.98767817, -0.77096945, 87.59300232, 1211.47338867, 39.43000031, 0.00000000
1, 0.4499, 45, 0.00777481, -0.97900075, -0.22861126, -0.55338544, -7.14626789, -0.28313169, 9.18795681, -65.79473114, 54.44134521, -0.46357608, 0.46767655, 3.06736159, 0.99962485, 0.00415320, -0.00397147, -0.02678064, 0.00050202, 0.98693967, -0.77132297, 87.59300232, 1211.47338867, 39.43000031, 0.00000000
1, 0.4599, 46, 0.01009342, -0.97988069, -0.22668460, -0.43930820, -7.58853102, -0.46856186, 9.18795681, -65.79473114, 54.44134521, -0.46948335, 0.45529929, 2.99239874, 0.99964237, 0.00419932, -0.00386486, -0.02612647, -0.00207079, 0.98803604, -0.77324998, 87.59300232, 1211.47338867, 39.43000031, 0.00000000
1, 0.4699, 47, 0.01311837, -0.98035711, -0.22850108, -0.63136655, -8.05205631, -0.54803246, 10.17519665, -66.23451233, 54.59360886, -0.47738230, 0.44265479, 2.91276526, 0.99966043, 0.00426273, -0.00375572, -0.02543160, -0.00530921, 0.98863834, -0.77143419, 87.59300232, 1211.47338867, 39.43000031, 0.00000000
1, 0.4799, 48, 0.01532053, -0.98006374, -0.22961336, -0.51668042, -8.61496258, -0.70084423, 9.22451973, -66.89420319, 54.76489258, -0.48424238, 0.43022627, 2.82729578, 0.99967933, 0.00431710, -0.00364900, -0.02468577, -0.00773325, 0.98847169, -0.77032244, 87.59300232, 1211.47338867, 39.43000031, 0.00000000
1, 0.4899, 49, 0.01355429, -0.98160583, -0.23013602, -0.51102263, -9.12839890, -0.78196907, 9.26108551, -69.00521088, 54.63166809, -0.49111354, 0.41742551, 2.73664618, 0.99969864, 0.00437149, -0.00353930, -0.02389469, -0.00617999, 0.99013424, -0.76980042, 87.59300232, 1211.47338867, 39.43000031, 0.00000000
1, 0.4999, 50, 0.01287914, -0.98295498, -0.22830695, -0.64696366, -9.65810966, -0.98605102, 8.45666599, -66.54237366, 53.81328964, -0.50504690, 0.40565825, 2.59010506, 0.99972832, 0.00448620, -0.00343948, -0.02261624, -0.00572921, 0.99164081, -0.77162981, 87.59300232, 1211.47338867, 39.43000031, 0.00000000
1, 0.5099, 51, 0.01181356, -0.98356092, -0.22561531, -0.81439269, -10.66837692, -1.20013976, 8.45666599, -66.54237366, 53.81328964, -0.51521379, 0.39345148, 2.48353505, 0.99974889, 0.00456940, -0.00333523, -0.02168632, -0.00486575, 0.99248302, -0.77432072, 87.59300232, 1211.47338867, 39.43000031, 0.00000000
1, 0.5199, 52, 0.01128277, -0.98578441, -0.22822160, -1.36173570, -11.28679943, -1.42240632, 9.15139103, -66.41043091, 53.96554947, -0.53096682, 0.38199574, 2.37052608, 0.99976945, 0.00470148, -0.00323694, -0.02070037, -0.00453690, 0.99493659, -0.77171379, 87.59300232, 1211.47338867, 39.43000031, 0.00000000
1, 0.5299, 53, 0.01247638, -0.98708314, -0.22787942, -1.82116759, -12.06261826, -1.41973281, 9.33421421, -67.77378845, 54.21296692, -0.55143094, 0.36874184, 2.25002527, 0.99979019, 0.00487435, -0.00312274, -0.01964906, -0.00595357, 0.99657512, -0.77205431, 87.59300232, 1211.47338867, 39.43000031, 0.00000000
1, 0.5399, 54, 0.01366241, -0.98522127, -0.22886847, -1.90761399, -12.38893795, -1.44390702, 9.22451973, -67.50991058, 54.15587234, -0.57278198, 0.35494250, 2.12629318, 0.99981028, 0.00505503, -0.00300414, -0.01856950, -0.00737908, 0.99507505, -0.77106327, 87.59300232, 1211.47338867, 39.43000031, 0.00000000
1, 0.5499, 55, 0.01253607, -0.98199207, -0.22978069, -1.70760286, -12.85223484, -1.34878957, 9.33421421, -67.20205688, 54.36522293, -0.59833819, 0.34042111, 1.94949841, 0.99983704, 0.00527122, -0.00288143, -0.01702696, -0.00650969, 0.99222207, -0.77014881, 87.59300232, 1211.47338867, 39.43000031, 0.00000000
1, 0.5599, 56, 0.01096075, -0.97889322, -0.22860648, -1.59516931, -13.38312721, -1.36029482, 9.33421421, -67.20205688, 54.36522293, -0.61668837, 0.32346904, 1.81626189, 0.99985576, 0.00542563, -0.00273711, -0.01586410, -0.00520103, 0.98953867, -0.77132028, 87.59300232, 1211.47338867, 39.43000031, 0.00000000
1, 0.5699, 57, 0.00923499, -0.97990495, -0.22395577, -1.55412233, -13.60210514, -1.59354222, 8.74918270, -66.80625153, 53.85135651, -0.63461757, 0.30824307, 1.68034720, 0.99987340, 0.00557688, -0.00260839, -0.01467788, -0.00375801, 0.99086064, -0.77596921, 87.59300232, 1211.47338867, 39.43000031, 0.00000000
1, 0.5799, 58, 0.00700540, -0.98581511, -0.21648423, -1.51532769, -13.78907204, -1.68548322, 9.00513363, -66.23451233, 53.69910049, -0.65216058, 0.29345104, 1.54241228, 0.99988973, 0.00572508, -0.00248397, -0.01347399, -0.00179511, 0.99708271, -0.78343874, 87.59300232, 1211.47338867, 39.43000031, 0.00000000
1, 0.5899, 59, 0.00828138, -0.98996657, -0.21690004, -1.59853518, -14.09422684, -1.95531869, 9.99237347, -67.29001617, 53.68006516, -0.67057490, 0.28056031, 1.40090561, 0.99990499, 0.00588131, -0.00237658, -0.01223898, -0.00330222, 1.00154865, -0.78302050, 87.59300232, 1211.47338867, 39.43000031, 0.00000000
1, 0.5999, 60, 0.00833431, -0.98850745, -0.21855050, -1.75289273, -14.62465096, -2.12420297, 9.69985962, -67.07012177, 53.07104492, -0.69278312, 0.26889434, 1.20564461, 0.99992359, 0.00606997, -0.00228276, -0.01053500, -0.00356510, 1.00043750, -0.78136700, 87.59300232, 1211.47338867, 39.43000031, 0.00000000
1, 0.6099, 61, 0.00773405, -0.98417187, -0.22151050, -1.83819163, -15.15766239, -2.09999108, 9.69985962, -67.07012177, 53.07104492, -0.71369976, 0.25487879, 1.05348957, 0.99993575, 0.00624833, -0.00216684, -0.00920695, -0.00319465, 0.99649090, -0.77840328, 87.59300232, 1211.47338867, 39.43000031, 0.00000000
1, 0.6199, 62, 0.00812361, -0.98133373, -0.22527044, -1.72385561, -15.54760742, -2.33705688, 9.99237347, -66.58635712, 53.31845856, -0.73350614, 0.24223408, 0.89698046, 0.99994659, 0.00641734, -0.00206368, -0.00784090, -0.00381324, 0.99400347, -0.77464002, 87.59300232, 1211.47338867, 39.43000031, 0.00000000
1, 0.6299, 63, 0.01019574, -0.97973585, -0.22806703, -1.78994048, -16.11363792, -2.38391137, 9.66329384, -66.19053650, 52.72846985, -0.75404245, 0.22870037, 0.73487705, 0.99995577, 0.00659286, -0.00195350, -0.00642595, -0.00611272, 0.99276620, -0.77183974, 87.59300232, 1211.47338867, 39.43000031, 0.00000000
1, 0.6399, 64, 0.01087238, -0.97872925, -0.22943701, -1.35803628, -16.33382034, -2.35470510, 9.29764843, -66.41043091, 52.91878891, -0.77024585, 0.21432483, 0.57064509, 0.99996322, 0.00673083, -0.00183680, -0.00499225, -0.00703323, 0.99207532, -0.77046663, 87.59300232, 1211.47338867, 39.43000031, 0.00000000
1, 0.6499, 65, 0.00976145, -0.97773075, -0.22802664, -1.15743768, -16.72707367, -2.34600854, 9.80955124, -67.24604034, 52.95685196, -0.78927010, 0.20036829, 0.35512108, 0.99996990, 0.00689300, -0.00172715, -0.00311098, -0.00618103, 0.99135089, -0.77187419, 87.59300232, 1211.47338867, 39.43000031, 0.00000000
1, 0.6599, 66, 0.00811682, -0.97723013, -0.22844100, -0.90507054, -17.13963318, -2.17967129, 9.99237347, -67.11410522, 52.78556442, -0.80097318, 0.18235007, 0.18341173, 0.99997300, 0.00699228, -0.00158007, -0.00161165, -0.00481533, 0.99113625, -0.77145684, 87.59300232, 1211.47338867, 39.43000031, 0.00000000
1, 0.6699, 67, 0.00784128, -0.97615671, -0.22714405, -0.77168798, -17.84019279, -2.30027747, 9.99237347, -67.11410522, 52.78556442, -0.81139618, 0.16386390, 0.00459428, 0.99997401, 0.00708076, -0.00142966, -0.00005022, -0.00485430, 0.99025184, -0.77275217, 87.59300232, 1211.47338867, 39.43000031, 0.00000000
1, 0.6799, 68, 0.00661405, -0.97690845, -0.22700898, -0.51679325, -18.18041992, -2.36094546, 9.37077904, -67.77378845, 52.57621384, -0.81926626, 0.14516568, -0.17770891, 0.99997246, 0.00714740, -0.00127786, 0.00154170, -0.00395782, 0.99115455, -0.77288604, 87.59300232, 1211.47338867, 39.43000031, 0.00000000
1, 0.6899, 69, 0.00737093, -0.97856545, -0.22559725, -0.20708010, -18.60570145, -2.44114733, 10.02893925, -65.88268280, 52.30976105, -0.82404107, 0.12624852, -0.36437303, 0.99996859, 0.00718751, -0.00112456, 0.00317174, -0.00504475, 0.99291801, -0.77429700, 87.59300232, 1211.47338867, 39.43000031, 0.00000000
1, 0.6999, 70, 0.00568890, -0.97851688, -0.22441530, -0.07767396, -18.84284973, -2.56957746, 9.26108551, -66.89420319, 51.89105988, -0.83176666, 0.10915132, -0.60010916, 0.99995959, 0.00725338, -0.00099050, 0.00522986, -0.00368287, 0.99295753, -0.77547836, 87.59300232, 1211.47338867, 39.43000031, 0.00000000
1, 0.7099, 71, 0.00214192, -0.97886157, -0.22519496, -0.00027876, -19.06097603, -2.83807492, 10.06550503, -67.33399963, 52.10041046, -0.83443689, 0.09301760, -0.79212946, 0.99994934, 0.00727598, -0.00086203, 0.00690648, -0.00041688, 0.99341053, -0.77469772, 87.59300232, 1211.47338867, 39.43000031, 0.00000000
1, 0.7199, 72, -0.00291952, -0.98170978, -0.22520913, -0.05318960, -19.07769012, -2.89099908, 10.06550503, -67.33399963, 52.10041046, -0.83759248, 0.07735352, -0.98443508, 0.99993622, 0.00730324, -0.00073779, 0.00858554, 0.00437364, 0.99630535, -0.77468336, 87.59300232, 1211.47338867, 39.43000031, 0.00000000
1, 0.7299, 73, -0.00568487, -0.98259288, -0.22592257, -0.35438368, -19.31850052, -3.00060987, 10.24832726, -67.33399963, 52.10041046, -0.84372592, 0.06217904, -1.17928576, 0.99991989, 0.00735685, -0.00061834, 0.01028675, 0.00687038, 0.99727333, -0.77396894, 87.59300232, 1211.47338867, 39.43000031, 0.00000000
1, 0.7399, 74, -0.00480594, -0.98199147, -0.22849320, -0.42688602, -19.47601509, -2.84549499, 9.91924763, -66.41043091, 51.70074081, -0.85055834, 0.04512176, -1.37530959, 0.99990040, 0.00741719, -0.00048280, 0.01199829, 0.00570661, 0.99679446, -0.77139682, 87.59300232, 1211.47338867, 39.43000031, 0.00000000
1, 0.7499, 75, -0.00559991, -0.97946292, -0.22716071, -0.37385660, -19.33780098, -2.87790775, 10.54084206, -65.31095886, 51.39622498, -0.86168414, 0.02761489, -1.61736500, 0.99987215, 0.00751539, -0.00034708, 0.01411149, 0.00620442, 0.99439317, -0.77272761, 87.59300232, 1211.47338867, 39.43000031, 0.00000000
1, 0.7599, 76, -0.00582509, -0.97696656, -0.22714527, -0.19593087, -19.12998772, -2.90924001, 10.35801888, -65.88268280, 51.54848099, -0.86604935, 0.01190546, -1.81019032, 0.99984670, 0.00755505, -0.00022326, 0.01579499, 0.00614093, 0.99205554, -0.77274084, 87.59300232, 1211.47338867, 39.43000031, 0.00000000
1, 0.7699, 77, -0.00533668, -0.97697181, -0.22634000, -0.12571336, -19.04452133, -2.85492325, 10.35801888, -65.88268280, 51.54848099, -0.86964118, -0.00414376, -2.00207758, 0.99981856, 0.00758845, -0.00009643, 0.01747030, 0.00536204, 0.99213254, -0.77354509, 87.59300232, 1211.47338867, 39.43000031, 0.00000000
1, 0.7799, 78, -0.00391531, -0.97509789, -0.22591105, 0.00048147, -18.95605087, -2.95891929, 10.24832726, -67.07012177, 51.64364243, -0.87192380, -0.01899061, -2.19333315, 0.99978793, 0.00761067, 0.00002006, 0.01913998, 0.00367889, 0.99029809, -0.77397341, 87.59300232, 1211.47338867, 39.43000031, 0.00000000
1, 0.7899, 79, -0.00322743, -0.97802961, -0.22493996, 0.01877409, -18.83412170, -3.06188178, 10.28489304, -68.56541443, 51.35815811, -0.87397343, -0.03255066, -2.38365817, 0.99975455, 0.00763104, 0.00012535, 0.02080140, 0.00274495, 0.99326664, -0.77494383, 87.59300232, 1211.47338867, 39.43000031, 0.00000000
1, 0.7999, 80, -0.00221272, -0.98164576, -0.22473943, -0.05201978, -18.69488525, -3.21694231, 10.72366428, -66.98216248, 51.20590591, -0.88082355, -0.04470147, -2.61949420, 0.99970907, 0.00769346, 0.00021429, 0.02285972, 0.00151216, 0.99694514, -0.77514327, 87.59300232, 1211.47338867, 39.43000031, 0.00000000
1, 0.8099, 81, -0.00085946, -0.98494643, -0.22490215, -0.05443354, -18.40300179, -3.22837687, 10.43115044, -66.10257721, 50.25430679, -0.88345593, -0.05568959, -2.80599928, 0.99967039, 0.00771912, 0.00029706, 0.02448753, -0.00004337, 1.00035143, -0.77497882, 87.59300232, 1211.47338867, 39.43000031, 0.00000000
1, 0.8199, 82, -0.00248222, -0.98562866, -0.22569397, -0.09154672, -18.26606178, -3.22538424, 10.43115044, -66.10257721, 50.25430679, -0.88642603, -0.06639332, -2.99115086, 0.99962920, 0.00774793, 0.00037728, 0.02610344, 0.00139253, 1.00107694, -0.77418602, 87.59300232, 1211.47338867, 39.43000031, 0.00000000
1, 0.8299, 83, -0.00166701, -0.98260516, -0.22526340, -0.12375597, -18.21001244, -3.52293873, 10.65053368, -67.59787750, 50.42559433, -0.88967705, -0.07408631, -3.17644525, 0.99958539, 0.00777875, 0.00043107, 0.02772033, 0.00042043, 0.99810612, -0.77461565, 87.59300232, 1211.47338867, 39.43000031, 0.00000000
1, 0.8399, 84, 0.00087252, -0.97938389, -0.22416645, -0.21450774, -18.09064674, -3.52015162, 10.02893925, -66.14656067, 50.99655533, -0.89378875, -0.08155271, -3.36055279, 0.99953920, 0.00781721, 0.00048265, 0.02932679, -0.00224657, 0.99496222, -0.77571130, 87.59300232, 1211.47338867, 39.43000031, 0.00000000
1, 0.8499, 85, 0.00231406, -0.97611755, -0.22505033, -0.26877111, -18.03961372, -3.51891255, 10.57740784, -66.41043091, 51.11074448, -0.90218753, -0.08716145, -3.59052205, 0.99947774, 0.00789295, 0.00051358, 0.03133309, -0.00381179, 0.99178636, -0.77482581, 87.59300232, 1211.47338867, 39.43000031, 0.00000000
1, 0.8599, 86, 0.00385828, -0.97628856, -0.22435778, -0.23448679, -17.91983414, -3.48134255, 11.19900227, -66.45441437, 50.36849594, -0.90645039, -0.09464563, -3.77288294, 0.99942631, 0.00793309, 0.00056507, 0.03292415, -0.00546040, 0.99207854, -0.77551627, 87.59300232, 1211.47338867, 39.43000031, 0.00000000
1, 0.8699, 87, 0.00185626, -0.97774446, -0.22279014, -0.20206143, -17.54219055, -3.47350216, 11.19900227, -66.45441437, 50.36849594, -0.91032952, -0.10135113, -3.95155096, 0.99937332, 0.00796980, 0.00061002, 0.03448286, -0.00358284, 0.99361104, -0.77708244, 87.59300232, 1211.47338867, 39.43000031, 0.00000000
1, 0.8799, 88, -0.00092076, -0.97956467, -0.22403349, -0.11358362, -17.43885612, -3.45402241, 11.16243649, -65.83870697, 50.14011383, -0.91329938, -0.10800846, -4.12918091, 0.99931842, 0.00799873, 0.00065478, 0.03603244, -0.00091652, 0.99548298, -0.77583814, 87.59300232, 1211.47338867, 39.43000031, 0.00000000
1, 0.8899, 89, -0.00047272, -0.98305035, -0.22294593, 0.10043140, -17.28250694, -3.46896815, 11.05274487, -65.70676422, 49.98785782, -0.91408610, -0.11416725, -4.30534267, 0.99926174, 0.00800861, 0.00069593, 0.03756908, -0.00147942, 0.99899828, -0.77692497, 87.59300232, 1211.47338867, 39.43000031, 0.00000000
1, 0.8999, 90, -0.00071291, -0.98310286, -0.22371814, 0.11714543, -17.04108047, -3.53425694, 11.16243649, -65.66278839, 49.87366486, -0.91790646, -0.11915197, -4.52621984, 0.99918711, 0.00804496, 0.00072264, 0.03949547, -0.00134018, 0.99907297, -0.77615225, 87.59300232, 1211.47338867, 39.43000031, 0.00000000
1, 0.9099, 91, -0.00050359, -0.98358428, -0.22196549, 0.22017090, -16.64686966, -3.45597124, 11.16243649, -66.49839020, 50.34946442, -0.91739953, -0.12398544, -4.69618464, 0.99912739, 0.00804333, 0.00075304, 0.04097778, -0.00162886, 0.99959809, -0.77790403, 87.59300232, 1211.47338867, 39.43000031, 0.00000000
1, 0.9199, 92, -0.00063683, -0.98152757, -0.22102916, 0.33903155, -16.23765755, -3.23679209, 11.16243649, -66.49839020, 50.34946442, -0.91565251, -0.12999727, -4.86167669, 0.99906731, 0.00803141, 0.00079448, 0.04242107, -0.00158868, 0.99752021, -0.77884048, 87.59300232, 1211.47338867, 39.43000031, 0.00000000
1, 0.9299, 93, -0.00093612, -0.97754860, -0.22232695, 0.44299456, -15.94636250, -3.16067290, 11.41839027, -68.60939789, 50.25430679, -0.91281313, -0.13607864, -5.02417517, 0.99900621, 0.00801010, 0.00083719, 0.04383817, -0.00139690, 0.99349892, -0.77754319, 87.59300232, 1211.47338867, 39.43000031, 0.00000000
1, 0.9399, 94, -0.00111507, -0.97838616, -0.22156568, 0.63510662, -15.56946087, -3.03028870, 11.08931065, -67.64184570, 49.81657028, -0.90799713, -0.14254454, -5.18272400, 0.99894482, 0.00797181, 0.00088438, 0.04522076, -0.00132872, 0.99426019, -0.77830535, 87.59300232, 1211.47338867, 39.43000031, 0.00000000
1, 0.9499, 95, -0.00187825, -0.98164701, -0.22039743, 0.79239559, -15.22628593, -2.95324159, 10.83335686, -66.32247925, 49.93076324, -0.90496206, -0.14902230, -5.38447046, 0.99886382, 0.00794956, 0.00092805, 0.04697982, -0.00068229, 0.99744010, -0.77947456, 87.59300232, 1211.47338867, 39.43000031, 0.00000000
1, 0.9599, 96, -0.00319547, -0.98796463, -0.22119555, 0.79544067, -15.04931259, -3.28351831, 11.12587547, -66.85022736, 49.39786530, -0.89846569, -0.15180261, -5.53855944, 0.99880010, 0.00789535, 0.00094433, 0.04832307, 0.00056254, 1.00369000, -0.77867734, 87.59300232, 1211.47338867, 39.43000031, 0.00000000
1, 0.9699, 97, -0.00354776, -0.98896992, -0.22157583, 0.81178838, -14.68696022, -3.39899826, 11.12587547, -65.79473114, 49.35980225, -0.89176822, -0.15260847, -5.68939924, 0.99873608, 0.00783856, 0.00094386, 0.04963776, 0.00088348, 1.00456929, -0.77829897, 87.59300232, 1211.47338867, 39.43000031, 0.00000000
1, 0.9799, 98, -0.00208791, -0.98748946, -0.22130312, 0.86287278, -14.30831528, -3.44392943, 11.12587547, -65.79473114, 49.35980225, -0.88452655, -0.15207900, -5.83666134, 0.99867195, 0.00777642, 0.00093239, 0.05092110, -0.00057197, 1.00297260, -0.77857345, 87.59300232, 1211.47338867, 39.43000031, 0.00000000
1, 0.9899, 99, -0.00032164, -0.98248512, -0.21992491, 0.89411825, -13.82804298, -3.41634917, 11.12587547, -66.10257721, 49.32173538, -0.87693101, -0.15069269, -5.97919941, 0.99860847, 0.00771075, 0.00091409, 0.05216315, -0.00231489, 0.99783945, -0.77995372, 87.59300232, 1211.47338867, 39.43000031, 0.00000000
1, 0.9999, 100, -0.00375793, -0.98266441, -0.21947144, 0.78066605, -13.45439148, -3.23236346, 11.49152088, -65.57482910, 49.68334579, -0.87336683, -0.15087724, -6.16534948, 0.99852252, 0.00768126, 0.00090485, 0.05378526, 0.00113085, 0.99791563, -0.78040886, 87.59300232, 1211.47338867, 39.43000031, 0.00000000
1, 1.0099, 101, -0.00260983, -0.98254728, -0.22004266, 0.70259207, -13.08103085, -3.01333547, 11.82060146, -66.80625153, 49.66431046, -0.86760253, -0.15167107, -6.29964685, 0.99845928, 0.00763247, 0.00090553, 0.05495548, -0.00003072, 0.99771738, -0.77983880, 87.59300232, 1211.47338867, 39.43000031, 0.00000000
1, 1.0199, 102, 0.00153733, -0.98541325, -0.22201785, 0.60672641, -12.77699757, -2.76055408, 12.40563011, -68.43347931, 48.99819565, -0.86276877, -0.15420981, -6.43041515, 0.99839622, 0.00759262, 0.00092130, 0.05609497, -0.00420988, 1.00050509, -0.77786469, 87.59300232, 1211.47338867, 39.43000031, 0.00000000
1, 1.0299, 103, 0.00127156, -0.98605245, -0.22233301, 0.37030202, -12.52268028, -2.68417048, 12.40563011, -68.43347931, 48.99819565, -0.86026520, -0.15689228, -6.55849171, 0.99833298, 0.00757317, 0.00093744, 0.05721097, -0.00399739, 1.00107646, -0.77755034, 87.59300232, 1211.47338867, 39.43000031, 0.00000000
1, 1.0399, 104, 0.00035505, -0.98610669, -0.22363570, 0.25828865, -12.19934177, -2.57156038, 11.45495605, -65.17901611, 48.73174286, -0.85885781, -0.15992600, -6.68316317, 0.99827015, 0.00756347, 0.00095634, 0.05829727, -0.00312459, 1.00110662, -0.77624798, 87.59300232, 1211.47338867, 39.43000031, 0.00000000
1, 1.0499, 105, -0.00060617, -0.98688281, -0.22562094, 0.11155454, -11.84025860, -2.56356192, 11.96685791, -66.63032532, 48.78883743, -0.86278433, -0.16271032, -6.85235310, 0.99818277, 0.00760053, 0.00096738, 0.05977133, -0.00221101, 1.00188899, -0.77426249, 87.59300232, 1211.47338867, 39.43000031, 0.00000000
1, 1.0599, 106, 0.00017405, -0.98197937, -0.22456190, 0.25202206, -11.56526089, -2.52305341, 11.93029308, -67.90572357, 48.52238846, -0.86136973, -0.16475566, -6.97074413, 0.99812049, 0.00759029, 0.00097809, 0.06080270, -0.00303536, 0.99702251, -0.77532083, 87.59300232, 1211.47338867, 39.43000031, 0.00000000
1, 1.0699, 107, 0.00221059, -0.97985226, -0.22415519, 0.19676737, -11.32468605, -2.57056165, 11.93029308, -66.80625153, 48.63658524, -0.86045879, -0.16578858, -7.08688021, 0.99805844, 0.00758390, 0.00097988, 0.06181430, -0.00510033, 0.99487662, -0.77572781, 87.59300232, 1211.47338867, 39.43000031, 0.00000000
1, 1.0799, 108, 0.00106796, -0.97885573, -0.22265287, 0.21374001, -11.03094196, -2.68748593, 11.93029308, -66.80625153, 48.63658524, -0.85936767, -0.16500786, -7.20043468, 0.99799681, 0.00757494, 0.00096617, 0.06280324, -0.00395247, 0.99385858, -0.77723044, 87.59300232, 1211.47338867, 39.43000031, 0.00000000
1, 1.0899, 109, 0.00089138, -0.98082346, -0.22371502, 0.24807806, -10.99778843, -2.59900284, 11.82060146, -66.23451233, 48.63658524, -0.85793489, -0.16500942, -7.31346083, 0.99793440, 0.00756341, 0.00095951, 0.06378755, -0.00376992, 0.99579895, -0.77616858, 87.59300232, 1211.47338867, 39.43000031, 0.00000000
1, 1.0999, 110, 0.00490109, -0.98399466, -0.21987869, -0.07534789, -11.03577137, -2.52849817, 11.96685791, -65.75074005, 48.88399887, -0.86332422, -0.16303487, -7.47546530, 0.99784297, 0.00761057, 0.00092855, 0.06519824, -0.00777667, 0.99900538, -0.78000456, 87.59300232, 1211.47338867, 39.43000031, 0.00000000
1, 1.1099, 111, 0.01139618, -0.98534811, -0.21689445, -0.18320714, -11.38368225, -2.28938627, 11.60121250, -65.61880493, 49.28366852, -0.86623412, -0.16694801, -7.59149408, 0.99777615, 0.00763910, 0.00095324, 0.06620884, -0.01428203, 1.00044703, -0.78298742, 87.59300232, 1211.47338867, 39.43000031, 0.00000000
1, 1.1199, 112, 0.01743982, -0.98712873, -0.21825655, -0.20135997, -11.57479572, -2.15272236, 11.16243649, -65.66278839, 48.21787643, -0.86933059, -0.17263785, -7.70905352, 0.99770737, 0.00767037, 0.00099312, 0.06723282, -0.02041208, 1.00227857, -0.78162432, 87.59300232, 1211.47338867, 39.43000031, 0.00000000
1, 1.1299, 113, 0.01954240, -0.98455346, -0.21916893, -0.23818800, -11.81894112, -1.92922461, 11.16243649, -65.66278839, 48.21787643, -0.87279373, -0.18106666, -7.82847166, 0.99763644, 0.00770657, 0.00105645, 0.06827310, -0.02264748, 0.99976134, -0.78071058, 87.59300232, 1211.47338867, 39.43000031, 0.00000000
1, 1.1399, 114, 0.01959936, -0.98374581, -0.22008559, -0.26936838, -12.09108925, -2.09305549, 11.23556709, -65.44289398, 48.29400635, -0.87657875, -0.18854336, -7.95091391, 0.99756253, 0.00774517, 0.00111101, 0.06933957, -0.02284188, 0.99901837, -0.77979249, 87.59300232, 1211.47338867, 39.43000031, 0.00000000
1, 1.1499, 115, 0.01846116, -0.98478580, -0.21896704, -0.47899699, -12.43296719, -2.27538443, 12.07655048, -67.46593475, 48.42723465, -0.88489640, -0.18858655, -8.12387943, 0.99745607, 0.00781926, 0.00109455, 0.07084530, -0.02179521, 1.00015640, -0.78090930, 87.59300232, 1211.47338867, 39.43000031, 0.00000000
1, 1.1599, 116, 0.01719248, -0.98817259, -0.21998976, -0.81993937, -12.43592644, -2.25682521, 12.62501812, -67.99369049, 48.17981720, -0.89419973, -0.19528787, -8.24999809, 0.99737680, 0.00790564, 0.00113843, 0.07194358, -0.02056221, 1.00371385, -0.77988380, 87.59300232, 1211.47338867, 39.43000031, 0.00000000
1, 1.1699, 117, 0.01410401, -0.98817587, -0.22073120, -1.15545535, -12.65786076, -2.48898268, 11.45495605, -66.54237366, 47.64691544, -0.90687770, -0.20027487, -8.37875938, 0.99729431, 0.00802043, 0.00116487, 0.07306471, -0.01756726, 1.00391507, -0.77913892, 87.59300232, 1211.47338867, 39.43000031, 0.00000000
1, 1.1799, 118, 0.01259286, -0.99098688, -0.21978326, -1.40741336, -12.74759960, -2.36704993, 11.45495605, -66.54237366, 47.64691544, -0.92205364, -0.20668298, -8.50807858, 0.99721003, 0.00815795, 0.00120175, 0.07419073, -0.01615516, 1.00697768, -0.78008258, 87.59300232, 1211.47338867, 39.43000031, 0.00000000
1, 1.1899, 119, 0.01200222, -0.99009049, -0.22113709, -1.64315903, -12.64851665, -2.24119759, 11.34525871, -64.95912170, 47.72304535, -0.93956894, -0.21412651, -8.63611603, 0.99712515, 0.00831659, 0.00124590, 0.07530561, -0.01569330, 1.00636971, -0.77872360, 87.59300232, 1211.47338867, 39.43000031, 0.00000000
1, 1.1999, 120, 0.00966785, -0.98706979, -0.22154094, -1.98684382, -12.37731934, -2.19928741, 11.23556709, -66.85022736, 48.04659271, -0.96298784, -0.21819592, -8.80677319, 0.99701005, 0.00852492, 0.00125322, 0.07679105, -0.01346418, 1.00370526, -0.77831346, 87.59300232, 1211.47338867, 39.43000031, 0.00000000
1, 1.2099, 121, 0.00751977, -0.98417068, -0.22178976, -2.02660871, -12.19149971, -2.03705454, 11.93029308, -66.76226807, 47.79917526, -0.98426211, -0.22665614, -8.92983723, 0.99692523, 0.00871709, 0.00130321, 0.07786258, -0.01141959, 1.00121117, -0.77805740, 87.59300232, 1211.47338867, 39.43000031, 0.00000000
1, 1.2199, 122, 0.00390569, -0.98282647, -0.22145037, -1.90605044, -11.78028107, -1.94088650, 12.36906433, -67.07012177, 48.06562424, -1.00428498, -0.23514679, -9.04869080, 0.99684215, 0.00889846, 0.00135425, 0.07889739, -0.00794922, 1.00022256, -0.77839011, 87.59300232, 1211.47338867, 39.43000031, 0.00000000
1, 1.2299, 123, 0.00028745, -0.98532885, -0.22076939, -2.06902933, -11.71408272, -1.86868286, 11.78403568, -67.07012177, 48.00852585, -1.02590048, -0.24423201, -9.16669750, 0.99675846, 0.00909420, 0.00140903, 0.07992485, -0.00448787, 1.00309289, -0.77906394, 87.59300232, 1211.47338867, 39.43000031, 0.00000000
1, 1.2399, 124, 0.00109744, -0.98719960, -0.22520462, -2.09208035, -11.28683662, -1.77173829, 11.78403568, -66.80625153, 48.00852585, -1.04770803, -0.25329748, -9.28034401, 0.99667674, 0.00929167, 0.00146346, 0.08091432, -0.00545621, 1.00534177, -0.77462131, 87.59300232, 1211.47338867, 39.43000031, 0.00000000
1, 1.2499, 125, 0.00714419, -0.98327887, -0.22658734, -2.31296039, -11.17390060, -1.43470037, 12.51532650, -66.49839020, 47.68498611, -1.07622147, -0.26206061, -9.43892479, 0.99656123, 0.00954795, 0.00150634, 0.08229458, -0.01168430, 1.00184572, -0.77322996, 87.59300232, 1211.47338867, 39.43000031, 0.00000000
1, 1.2599, 126, 0.00935863, -0.97912359, -0.22902560, -2.24435925, -10.83028126, -1.42768610, 11.85716152, -66.14656067, 47.58982086, -1.09946728, -0.27350599, -9.54728222, 0.99648064, 0.00975982, 0.00157995, 0.08323812, -0.01405758, 0.99815786, -0.77078217, 87.59300232, 1211.47338867, 39.43000031, 0.00000000
1, 1.2699, 127, 0.00947374, -0.97574842, -0.23426156, -2.20943356, -10.72708416, -1.42562330, 12.03998470, -65.88268280, 47.41853714, -1.12233579, -0.28477892, -9.65464211, 0.99639994, 0.00996842, 0.00165203, 0.08417293, -0.01437230, 0.99519372, -0.76553738, 87.59300232, 1211.47338867, 39.43000031, 0.00000000
1, 1.2799, 128, 0.01078406, -0.97511268, -0.23667340, -2.06904149, -10.17477703, -1.55506802, 12.25937271, -65.22299194, 47.81820679, -1.14375269, -0.29353574, -9.75694084, 0.99632227, 0.01016260, 0.00170337, 0.08506346, -0.01585424, 0.99493486, -0.76311731, 87.59300232, 1211.47338867, 39.43000031, 0.00000000
1, 1.2899, 129, 0.00974687, -0.97513157, -0.23840789, -2.12848258, -9.36701298, -1.66095197, 12.25937271, -65.22299194, 47.81820679, -1.16569054, -0.29940134, -9.85163403, 0.99624956, 0.01035912, 0.00172952, 0.08588758, -0.01493870, 0.99532950, -0.76137459, 87.59300232, 1211.47338867, 39.43000031, 0.00000000
1, 1.2999, 130, 0.00463321, -0.97330761, -0.24094291, -2.14919949, -8.71162319, -1.87562776, 12.73470974, -65.48686981, 47.55176163, -1.19928491, -0.30060625, -9.98860073, 0.99614304, 0.01065413, 0.00170209, 0.08707890, -0.00988367, 0.99393833, -0.75883043, 87.59300232, 1211.47338867, 39.43000031, 0.00000000
1, 1.3099, 131, -0.00189795, -0.97356981, -0.24396990, -2.17346764, -8.04309082, -1.84392035, 12.44219589, -65.66278839, 47.05693054, -1.22158289, -0.30166331, -10.07085133, 0.99607813, 0.01084998, 0.00168654, 0.08779430, -0.00336107, 0.99474382, -0.75579208, 87.59300232, 1211.47338867, 39.43000031, 0.00000000
1, 1.3199, 132, -0.00256654, -0.97370899, -0.24151672, -2.09182763, -7.32369137, -1.72357571, 12.99066353, -65.00309753, 47.17111969, -1.24301553, -0.30221698, -10.14583397, 0.99601847, 0.01103781, 0.00166771, 0.08844644, -0.00270336, 0.99526840, -0.75823694, 87.59300232, 1211.47338867, 39.43000031, 0.00000000
1, 1.3299, 133, -0.00266816, -0.98013943, -0.23584101, -1.85052228, -6.41434336, -1.59972608, 12.29593849, -64.87116241, 47.41853714, -1.26197255, -0.30185446, -10.21170616, 0.99596554, 0.01120324, 0.00164349, 0.08901920, -0.00260094, 1.00204813, -0.76390517, 87.59300232, 1211.47338867, 39.43000031, 0.00000000
1, 1.3399, 134, 0.00108186, -0.97991610, -0.23687536, -1.60763323, -5.86721087, -1.36044872, 12.29593849, -64.87116241, 47.41853714, -1.27845228, -0.30253962, -10.27174091, 0.99591720, 0.01134786, 0.00163070, 0.08954129, -0.00635376, 1.00212550, -0.76286411, 87.59300232, 1211.47338867, 39.43000031, 0.00000000
1, 1.3499, 135, 0.00576814, -0.97843510, -0.23752122, -1.56616783, -5.23987246, -0.87277222, 12.80784130, -66.76226807, 47.66595078, -1.30042338, -0.30245855, -10.37451172, 0.99583429, 0.01154019, 0.00160248, 0.09043473, -0.01106803, 1.00094557, -0.76221132, 87.59300232, 1211.47338867, 39.43000031, 0.00000000
1, 1.3599, 136, 0.00773654, -0.97280061, -0.23924388, -1.51799345, -4.86466932, -0.70682657, 13.21005249, -67.33399963, 47.28531265, -1.31593442, -0.30714718, -10.42325974, 0.99579394, 0.01167938, 0.00162601, 0.09085903, -0.01306718, 0.99566573, -0.76048040, 87.59300232, 1211.47338867, 39.43000031, 0.00000000
1, 1.3699, 137, 0.01227415, -0.97045827, -0.23856217, -1.36289215, -4.28135395, -0.62472445, 12.47876072, -66.41043091, 47.38047028, -1.32986319, -0.31125906, -10.46616077, 0.99575830, 0.01180429, 0.00164628, 0.09123244, -0.01768344, 0.99357790, -0.76115584, 87.59300232, 1211.47338867, 39.43000031, 0.00000000
1, 1.3799, 138, 0.01224645, -0.96991897, -0.23994318, -1.14803076, -4.00264311, -0.77772707, 12.11311531, -64.95912170, 46.88563919, -1.34160054, -0.31323525, -10.50675583, 0.99572468, 0.01190844, 0.00164989, 0.09158555, -0.01770385, 0.99325699, -0.75976956, 87.59300232, 1211.47338867, 39.43000031, 0.00000000
1, 1.3899, 139, 0.01135096, -0.96999151, -0.24004579, -0.88362139, -3.60716510, -0.69990855, 12.11311531, -64.95912170, 46.88563919, -1.35067630, -0.31502956, -10.54335117, 0.99569434, 0.01198927, 0.00165440, 0.09190384, -0.01684275, 0.99350011, -0.75966275, 87.59300232, 1211.47338867, 39.43000031, 0.00000000
1, 1.3999, 140, 0.00639355, -0.97463763, -0.23804100, -0.84923446, -3.41791677, -0.71361333, 11.78403568, -64.56330872, 47.15208435, -1.36457658, -0.31383032, -10.63006973, 0.99562311, 0.01211032, 0.00162367, 0.09265739, -0.01189442, 0.99832720, -0.76166332, 87.59300232, 1211.47338867, 39.43000031, 0.00000000
1, 1.4099, 141, 0.00549442, -0.97918838, -0.24032953, -0.72543752, -2.98553371, -0.86310661, 11.96685791, -65.88268280, 47.58982086, -1.37202930, -0.31257328, -10.66103554, 0.99559730, 0.01217449, 0.00160343, 0.09292641, -0.01095675, 1.00308526, -0.75936997, 87.59300232, 1211.47338867, 39.43000031, 0.00000000
1, 1.4199, 142, 0.00683934, -0.98370230, -0.24090104, -0.74600917, -2.64204574, -0.89097881, 12.77127552, -66.54237366, 46.98080063, -1.37967479, -0.31022203, -10.68872356, 0.99557412, 0.01223939, 0.00157384, 0.09316684, -0.01226897, 1.00772941, -0.75879556, 87.59300232, 1211.47338867, 39.43000031, 0.00000000
1, 1.4299, 143, 0.00949664, -0.98222160, -0.23950757, -0.49949360, -2.38536334, -0.72813195, 11.85716152, -66.27849579, 46.92370605, -1.38483155, -0.30884618, -10.71357250, 0.99555331, 0.01228341, 0.00155503, 0.09338266, -0.01489647, 1.00636280, -0.76018637, 87.59300232, 1211.47338867, 39.43000031, 0.00000000
1, 1.4399, 144, 0.00807460, -0.97773731, -0.23709103, -0.44977766, -1.99100089, -0.68483645, 11.85716152, -66.27849579, 46.92370605, -1.38947499, -0.30695313, -10.73448563, 0.99553585, 0.01232249, 0.00153256, 0.09356421, -0.01344479, 1.00195456, -0.76260126, 87.59300232, 1211.47338867, 39.43000031, 0.00000000
1, 1.4499, 145, 0.00730630, -0.97421378, -0.23698184, -0.46956828, -1.73327672, -0.71451420, 12.58845234, -65.17901611, 47.07595444, -1.40105224, -0.30347106, -10.80635834, 0.99547589, 0.01242117, 0.00148506, 0.09418839, -0.01263199, 0.99854708, -0.76270789, 87.59300232, 1211.47338867, 39.43000031, 0.00000000
1, 1.4599, 146, 0.00731073, -0.97313339, -0.23586638, -0.43974033, -1.39337850, -0.49651983, 12.62501812, -64.16749573, 46.79048157, -1.40555131, -0.30198458, -10.82102299, 0.99546331, 0.01245921, 0.00146685, 0.09431568, -0.01259182, 0.99763346, -0.76381952, 87.59300232, 1211.47338867, 39.43000031, 0.00000000
1, 1.4699, 147, 0.00525161, -0.97341996, -0.23702937, -0.29823288, -1.15182769, -0.50945282, 12.40563011, -64.56330872, 46.27661514, -1.40861201, -0.29979107, -10.83338261, 0.99545294, 0.01248416, 0.00144393, 0.09442288, -0.01050406, 0.99797887, -0.76265520, 87.59300232, 1211.47338867, 39.43000031, 0.00000000
1, 1.4799, 148, 0.00643255, -0.97562623, -0.23715538, -0.12341129, -0.79164553, -0.41452384, 12.80784130, -65.70676422, 46.82854080, -1.40990925, -0.29765722, -10.84204865, 0.99544567, 0.01249378, 0.00142338, 0.09449795, -0.01163868, 1.00022793, -0.76252842, 87.59300232, 1211.47338867, 39.43000031, 0.00000000
1, 1.4899, 149, 0.00377599, -0.97524410, -0.23481247, 0.10775420, -0.54939115, -0.42771640, 12.80784130, -65.70676422, 46.82854080, -1.40887606, -0.29482031, -10.84841728, 0.99544066, 0.01248254, 0.00139890, 0.09455296, -0.00893980, 0.99983710, -0.76487172, 87.59300232, 1211.47338867, 39.43000031, 0.00000000
1, 1.4999, 150, 0.00384334, -0.97350168, -0.23504540, 0.44826025, -0.39091042, -0.51331794, 12.91753292, -65.88268280, 46.82854080, -1.39464509, -0.29645562, -10.90737152, 0.99539334, 0.01236100, 0.00141849, 0.09506506, -0.00897273, 0.99800360, -0.76464123, 87.59300232, 1211.47338867, 39.43000031, 0.00000000
1, 1.5099, 151, 0.00199711, -0.96957666, -0.23629892, 0.87603641, -0.37324664, -0.33847246, 12.91753292, -66.23451233, 47.36144257, -1.38591325, -0.29406014, -10.91191292, 0.99539059, 0.01228322, 0.00140444, 0.09510416, -0.00714465, 0.99382448, -0.76339382, 87.59300232, 1211.47338867, 39.43000031, 0.00000000
1, 1.5199, 152, 0.00123069, -0.97120667, -0.23413442, 1.35456872, 0.00533393, -0.17377275, 13.06379032, -65.31095886, 46.98080063, -1.37236094, -0.29236808, -10.91244698, 0.99539167, 0.01216410, 0.00140093, 0.09510845, -0.00634288, 0.99524832, -0.76556349, 87.59300232, 1211.47338867, 39.43000031, 0.00000000
1, 1.5299, 153, 0.00297828, -0.97388864, -0.23450378, 1.48012722, -0.13233620, -0.08915977, 12.25937271, -65.31095886, 46.77144623, -1.35756421, -0.29181704, -10.91412735, 0.99539179, 0.01203513, 0.00140825, 0.09512281, -0.00807221, 0.99768150, -0.76520014, 87.59300232, 1211.47338867, 39.43000031, 0.00000000
1, 1.5399, 154, 0.00126353, -0.97636455, -0.23570946, 1.70659339, 0.32975203, 0.09564523, 13.02722931, -66.98216248, 47.03789520, -1.34047961, -0.29196548, -10.91090870, 0.99539626, 0.01188681, 0.00142405, 0.09509465, -0.00635892, 0.99987078, -0.76400125, 87.59300232, 1211.47338867, 39.43000031, 0.00000000
1, 1.5499, 155, 0.00305561, -0.97983652, -0.23620708, 1.58034003, 0.57062536, -0.00437425, 13.02722931, -66.98216248, 47.03789520, -1.32560992, -0.29812184, -10.95747757, 0.99535888, 0.01176336, 0.00148509, 0.09549959, -0.00816538, 1.00306046, -0.76351011, 87.59300232, 1211.47338867, 39.43000031, 0.00000000
1, 1.5599, 156, 0.00336963, -0.98193103, -0.23649558, 1.59638023, 0.72456789, 0.03396977, 12.36906433, -66.36645508, 46.98080063, -1.30960369, -0.29672864, -10.95055199, 0.99536633, 0.01162308, 0.00148703, 0.09543909, -0.00855835, 1.00488997, -0.76322734, 87.59300232, 1211.47338867, 39.43000031, 0.00000000
1, 1.5699, 157, 0.00209604, -0.98013383, -0.23563509, 1.75634170, 0.82817757, 0.07081518, 12.07655048, -66.49839020, 47.09498978, -1.29197776, -0.29545283, -10.94255543, 0.99537480, 0.01146881, 0.00149143, 0.09536928, -0.00726027, 1.00279856, -0.76409471, 87.59300232, 1211.47338867, 39.43000031, 0.00000000
1, 1.5799, 158, 0.00131685, -0.97845608, -0.23446237, 1.86143625, 0.86074829, 0.22938314, 12.36906433, -66.54237366, 47.05693054, -1.27330863, -0.29564795, -10.93387604, 0.99538392, 0.01130669, 0.00150952, 0.09529367, -0.00647079, 1.00080013, -0.76527470, 87.59300232, 1211.47338867, 39.43000031, 0.00000000
1, 1.5899, 159, -0.00042945, -0.97700059, -0.23560944, 1.73047233, 1.02670634, 0.51452583, 12.14968109, -67.50991058, 47.01885986, -1.25593078, -0.29821542, -10.92288971, 0.99539465, 0.01115772, 0.00154734, 0.09519824, -0.00475347, 0.99903101, -0.76413441, 87.59300232, 1211.47338867, 39.43000031, 0.00000000
1, 1.5999, 160, -0.00173880, -0.97489905, -0.23474717, 1.94636273, 0.97722292, 0.49524653, 12.14968109, -67.50991058, 47.01885986, -1.24343777, -0.31107634, -10.96188068, 0.99536300, 0.01106045, 0.00166567, 0.09553795, -0.00353644, 0.99664295, -0.76500255, 87.59300232, 1211.47338867, 39.43000031, 0.00000000
1, 1.6099, 161, -0.00225022, -0.97576290, -0.23851269, 1.86970615, 1.49095654, 0.52386004, 12.44219589, -65.13504028, 46.99982834, -1.22464573, -0.31264901, -10.94637585, 0.99537772, 0.01089830, 0.00169647, 0.09540313, -0.00319688, 0.99725610, -0.76124150, 87.59300232, 1211.47338867, 39.43000031, 0.00000000
1, 1.6199, 162, -0.00180718, -0.97605181, -0.23912528, 2.10241294, 1.75236952, 0.38801745, 12.40563011, -65.39891052, 46.67628860, -1.20349979, -0.31228969, -10.92868423, 0.99539435, 0.01071406, 0.00171261, 0.09524910, -0.00364720, 0.99719250, -0.76063633, 87.59300232, 1211.47338867, 39.43000031, 0.00000000
1, 1.6299, 163, 0.00075214, -0.97593659, -0.23823498, 2.12216067, 1.87601829, 0.17961693, 12.69814968, -67.37797546, 47.57079315, -1.18215036, -0.30961770, -10.91028404, 0.99541169, 0.01052611, 0.00170884, 0.09508872, -0.00617443, 0.99670660, -0.76153457, 87.59300232, 1211.47338867, 39.43000031, 0.00000000
1, 1.6399, 164, 0.00191719, -0.97773349, -0.23725057, 2.06753612, 1.80526590, 0.28376642, 12.44219589, -65.35493469, 47.13305664, -1.16135895, -0.30813017, -10.89231777, 0.99542862, 0.01034400, 0.00171479, 0.09493223, -0.00730338, 0.99814439, -0.76252657, 87.59300232, 1211.47338867, 39.43000031, 0.00000000
1, 1.6499, 165, 0.00250768, -0.97444612, -0.23635902, 2.19274426, 1.84055638, 0.28412524, 12.44219589, -65.35493469, 47.13305664, -1.14740574, -0.30496439, -10.92518902, 0.99540257, 0.01022066, 0.00169592, 0.09521727, -0.00786157, 0.99451315, -0.76342529, 87.59300232, 1211.47338867, 39.43000031, 0.00000000
1, 1.6599, 166, 0.00325648, -0.97357118, -0.23505230, 2.54879427, 1.85765707, 0.45917830, 13.13692093, -65.04708099, 47.03789520, -1.12180722, -0.30506998, -10.90636253, 0.99542046, 0.00999810, 0.00171975, 0.09505336, -0.00857858, 0.99332237, -0.76473844, 87.59300232, 1211.47338867, 39.43000031, 0.00000000
1, 1.6699, 167, 0.00278807, -0.97267592, -0.23622021, 2.58273339, 1.90767777, 0.56559598, 11.67433929, -65.53085327, 46.80950928, -1.09586060, -0.30610016, -10.88680553, 0.99543893, 0.00977327, 0.00175189, 0.09488317, -0.00812515, 0.99196863, -0.76357943, 87.59300232, 1211.47338867, 39.43000031, 0.00000000
1, 1.6799, 168, 0.00222986, -0.97369570, -0.23783356, 2.53235030, 1.96329880, 0.28566658, 12.44219589, -65.66278839, 46.79048157, -1.07039630, -0.30429137, -10.86735630, 0.99545729, 0.00955027, 0.00175888, 0.09471369, -0.00755502, 0.99254441, -0.76197457, 87.59300232, 1211.47338867, 39.43000031, 0.00000000
1, 1.6899, 169, 0.00101085, -0.97556180, -0.23659874, 2.86073375, 1.83376682, -0.03447099, 13.02722931, -65.75074005, 47.05693054, -1.04167569, -0.29967785, -10.84994888, 0.99547416, 0.00929669, 0.00174395, 0.09456167, -0.00627390, 0.99393320, -0.76321864, 87.59300232, 1211.47338867, 39.43000031, 0.00000000
1, 1.6999, 170, 0.00232063, -0.97807056, -0.23675627, 2.93488479, 1.83719504, -0.21040894, 13.02722931, -65.75074005, 47.05693054, -1.02510607, -0.29650944, -10.88399220, 0.99544734, 0.00915065, 0.00172738, 0.09485690, -0.00749468, 0.99598098, -0.76306999, 87.59300232, 1211.47338867, 39.43000031, 0.00000000
1, 1.7099, 171, 0.00133602, -0.98141134, -0.23851402, 3.04358482, 1.77000105, -0.24731079, 12.44219589, -66.98216248, 47.60885620, -0.99454802, -0.28999543, -10.86771584, 0.99546349, 0.00887957, 0.00169735, 0.09471458, -0.00643877, 0.99896598, -0.76131892, 87.59300232, 1211.47338867, 39.43000031, 0.00000000
1, 1.7199, 172, 0.00103480, -0.97948104, -0.23942651, 3.15167522, 1.82344997, -0.31683102, 11.85716152, -66.27849579, 47.20917892, -0.96290922, -0.28268793, -10.85110569, 0.99547982, 0.00859844, 0.00166127, 0.09456930, -0.00601519, 0.99649453, -0.76041633, 87.59300232, 1211.47338867, 39.43000031, 0.00000000
1, 1.7299, 173, 0.00042981, -0.97597045, -0.24030024, 3.38159537, 1.96020854, -0.17403297, 12.36906433, -66.10257721, 46.84757614, -0.92895740, -0.27646133, -10.83285236, 0.99549758, 0.00829810, 0.00163652, 0.09440979, -0.00529740, 0.99241489, -0.75955266, 87.59300232, 1211.47338867, 39.43000031, 0.00000000
1, 1.7399, 174, -0.00320074, -0.97274268, -0.24151672, 3.66889954, 1.94559312, -0.19279763, 12.77127552, -65.61880493, 47.03789520, -0.89212519, -0.27010185, -10.81480980, 0.99551523, 0.00797263, 0.00161287, 0.09425211, -0.00155809, 0.98855233, -0.75834697, 87.59300232, 1211.47338867, 39.43000031, 0.00000000
1, 1.7499, 175, -0.00467880, -0.97353566, -0.24092318, 3.88636351, 2.01933146, -0.40285248, 12.77127552, -65.61880493, 47.03789520, -0.86973661, -0.26806813, -10.84631443, 0.99549079, 0.00777690, 0.00161148, 0.09452534, 0.00002812, 0.98875844, -0.75895011, 87.59300232, 1211.47338867, 39.43000031, 0.00000000
1, 1.7599, 176, -0.00182192, -0.97517431, -0.24265753, 4.06498384, 2.12394166, -0.41877803, 12.62501812, -64.82717896, 47.53272629, -0.82893169, -0.25911784, -10.82709789, 0.99550962, 0.00741477, 0.00156863, 0.09435728, -0.00275942, 0.98990321, -0.75722349, 87.59300232, 1211.47338867, 39.43000031, 0.00000000
1, 1.7699, 177, 0.00038290, -0.97566062, -0.24263693, 4.08321238, 2.03774476, -0.38548937, 12.66158390, -65.75074005, 47.11402512, -0.78796655, -0.25069904, -10.80863953, 0.99552763, 0.00705171, 0.00153036, 0.09419587, -0.00481420, 0.98967987, -0.75725496, 87.59300232, 1211.47338867, 39.43000031, 0.00000000
1, 1.7799, 178, 0.00065528, -0.97906739, -0.24287376, 4.19022989, 2.02057672, -0.33344290, 12.14968109, -68.03766632, 47.28531265, -0.74591154, -0.24284346, -10.79024220, 0.99554539, 0.00667966, 0.00149775, 0.09403503, -0.00494215, 0.99236161, -0.75702864, 87.59300232, 1211.47338867, 39.43000031, 0.00000000
1, 1.7899, 179, 0.00196821, -0.97955179, -0.23987836, 4.08238220, 1.96741450, -0.28149563, 12.33250427, -65.70676422, 46.99982834, -0.70494103, -0.23562691, -10.77221775, 0.99556267, 0.00631756, 0.00146967, 0.09387752, -0.00612807, 0.99211997, -0.76003397, 87.59300232, 1211.47338867, 39.43000031, 0.00000000
1, 1.7999, 180, 0.00138112, -0.97864389, -0.23803215, 4.10083628, 1.82947338, -0.23171721, 12.29593849, -65.97064209, 47.38047028, -0.68030375, -0.23210530, -10.80515957, 0.99553710, 0.00610105, 0.00145750, 0.09416324, -0.00543806, 0.99057233, -0.76188850, 87.59300232, 1211.47338867, 39.43000031, 0.00000000
1, 1.8099, 181, -0.00025515, -0.97752631, -0.23693435, 4.12020636, 1.77930176, -0.30314448, 12.29593849, -65.97064209, 47.38047028, -0.63897043, -0.22512674, -10.78901386, 0.99555260, 0.00573603, 0.00143165, 0.09402210, -0.00371769, 0.98894930, -0.76299250, 87.59300232, 1211.47338867, 39.43000031, 0.00000000
1, 1.8199, 182, 0.00113521, -0.97823155, -0.23535503, 4.12460947, 1.64580488, -0.53448254, 12.88097191, -66.01461792, 47.62788773, -0.59759635, -0.21620403, -10.77469349, 0.99556649, 0.00536908, 0.00138875, 0.09389678, -0.00497113, 0.98893046, -0.76458037, 87.59300232, 1211.47338867, 39.43000031, 0.00000000
1, 1.8299, 183, 0.00213457, -0.97951782, -0.23403029, 3.96876979, 1.54706657, -0.87006944, 12.88097191, -66.71829224, 47.47563171, -0.55780083, -0.20424901, -10.76205921, 0.99557889, 0.00501340, 0.00131804, 0.09378603, -0.00578231, 0.98951006, -0.76591313, 87.59300232, 1211.47338867, 39.43000031, 0.00000000
1, 1.8399, 184, 0.00322166, -0.98175877, -0.23397294, 3.80745649, 1.51120818, -0.85275131, 12.00342369, -67.29001617, 47.60885620, -0.51962024, -0.19254877, -10.74970531, 0.99559087, 0.00467198, 0.00124814, 0.09367781, -0.00665384, 0.99107361, -0.76597774, 87.59300232, 1211.47338867, 39.43000031, 0.00000000
1, 1.8499, 185, 0.00461370, -0.97978818, -0.23391286, 3.59035325, 1.55925906, -0.74560702, 12.29593849, -66.85022736, 48.31304169, -0.49986506, -0.18136679, -10.78489399, 0.99556309, 0.00449156, 0.00116576, 0.09398291, -0.00785573, 0.98853445, -0.76604366, 87.59300232, 1211.47338867, 39.43000031, 0.00000000
1, 1.8599, 186, 0.00352600, -0.97799265, -0.23671179, 3.46332860, 1.40046072, -0.53761727, 12.29593849, -66.85022736, 48.31304169, -0.46509475, -0.17300592, -10.77287579, 0.99557430, 0.00418250, 0.00112208, 0.09387785, -0.00659751, 0.98633629, -0.76324868, 87.59300232, 1211.47338867, 39.43000031, 0.00000000
1, 1.8699, 187, -0.00046598, -0.97827190, -0.23623432, 3.49851799, 1.31325889, -0.43408832, 12.47876072, -65.70676422, 47.57079315, -0.43000317, -0.16584517, -10.76146317, 0.99558502, 0.00387165, 0.00108900, 0.09377812, -0.00247786, 0.98600537, -0.76373136, 87.59300232, 1211.47338867, 39.43000031, 0.00000000
1, 1.8799, 188, -0.00198407, -0.97713161, -0.23451969, 3.55522323, 1.31711960, -0.64512032, 12.62501812, -66.63032532, 48.27497482, -0.39434937, -0.15662979, -10.75048637, 0.99559534, 0.00355425, 0.00103846, 0.09368214, -0.00080776, 0.98424751, -0.76545101, 87.59300232, 1211.47338867, 39.43000031, 0.00000000
1, 1.8899, 189, -0.00169228, -0.97911119, -0.23240767, 3.73615003, 1.30309308, -0.75143868, 12.62501812, -65.70676422, 47.15208435, -0.35688588, -0.14641176, -10.73989773, 0.99560523, 0.00322031, 0.00098060, 0.09358954, -0.00093325, 0.98558593, -0.76756793, 87.59300232, 1211.47338867, 39.43000031, 0.00000000
1, 1.8999, 190, -0.00098048, -0.98193002, -0.23082016, 3.66825461, 1.15102077, -0.93021119, 12.14968109, -65.22299194, 47.58982086, -0.33703628, -0.14028898, -10.78045368, 0.99557269, 0.00304319, 0.00094254, 0.09394157, -0.00147612, 0.98782933, -0.76915944, 87.59300232, 1211.47338867, 39.43000031, 0.00000000
1, 1.9099, 191, 0.00115408, -0.98306078, -0.22862038, 3.61534429, 1.13430560, -0.98313564, 12.14968109, -65.22299194, 47.58982086, -0.30079374, -0.12820038, -10.77199650, 0.99558061, 0.00271834, 0.00086743, 0.09386753, -0.00347193, 0.98854113, -0.77136195, 87.59300232, 1211.47338867, 39.43000031, 0.00000000
1, 1.9199, 192, 0.00307696, -0.98440510, -0.22660908, 3.30837321, 1.28542924, -0.92628425, 12.66158390, -65.00309753, 47.87530899, -0.26761049, -0.11633451, -10.76190281, 0.99558979, 0.00242025, 0.00079173, 0.09377934, -0.00518584, 0.98928827, -0.77337670, 87.59300232, 1211.47338867, 39.43000031, 0.00000000
1, 1.9299, 193, 0.00387752, -0.98786288, -0.22699434, 3.03997087, 1.30133140, -0.97786361, 12.51532650, -66.41043091, 47.66595078, -0.23710030, -0.10393507, -10.75172424, 0.99559885, 0.00214496, 0.00070916, 0.09369048, -0.00577306, 0.99219567, -0.77299440, 87.59300232, 1211.47338867, 39.43000031, 0.00000000
1, 1.9399, 194, 0.00334339, -0.98700225, -0.22400945, 2.91046214, 1.46900868, -0.79815900, 12.58845234, -66.58635712, 47.89433289, -0.20786729, -0.09292878, -10.73948765, 0.99560952, 0.00188191, 0.00063764, 0.09358382, -0.00503457, 0.99082148, -0.77598184, 87.59300232, 1211.47338867, 39.43000031, 0.00000000
1, 1.9499, 195, 0.00289605, -0.98763657, -0.22481887, 2.96266174, 1.53689575, -0.72657824, 12.07655048, -66.85022736, 47.98949814, -0.19012718, -0.08811274, -10.77548504, 0.99558038, 0.00172404, 0.00060974, 0.09389642, -0.00442979, 0.99098718, -0.77517438, 87.59300232, 1211.47338867, 39.43000031, 0.00000000
1, 1.9599, 196, 0.00179675, -0.98604625, -0.22223493, 2.87478781, 1.55563748, -0.86654180, 12.07655048, -66.85022736, 47.98949814, -0.16124368, -0.07626162, -10.76255703, 0.99559134, 0.00146333, 0.00053061, 0.09378380, -0.00320441, 0.98905188, -0.77775955, 87.59300232, 1211.47338867, 39.43000031, 0.00000000
1, 1.9699, 197, 0.00108208, -0.98455107, -0.22103205, 2.64013100, 1.77736759, -0.89631879, 11.71090508, -65.22299194, 47.81820679, -0.13468072, -0.06364119, -10.74747849, 0.99560410, 0.00122216, 0.00044286, 0.09365255, -0.00227654, 0.98707432, -0.77896404, 87.59300232, 1211.47338867, 39.43000031, 0.00000000
1, 1.9799, 198, 0.00049226, -0.98512816, -0.21975036, 2.40516710, 1.79068565, -0.77227163, 11.85716152, -65.39891052, 47.64691544, -0.11046370, -0.05220722, -10.73196507, 0.99561715, 0.00100236, 0.00036345, 0.09351757, -0.00147576, 0.98720765, -0.78024697, 87.59300232, 1211.47338867, 39.43000031, 0.00000000
1, 1.9899, 199, 0.00218294, -0.98607069, -0.22029248, 2.22112012, 1.90505004, -0.50562948, 12.62501812, -66.14656067, 48.16078186, -0.08805002, -0.04314039, -10.71473789, 0.99563134, 0.00080017, 0.00030308, 0.09336776, -0.00299198, 0.98775482, -0.77970576, 87.59300232, 1211.47338867, 39.43000031, 0.00000000
1, 1.9999, 200, 0.00115895, -0.98668754, -0.21883120, 2.02392650, 1.81687891, -0.45414495, 12.69814968, -67.33399963, 48.02755737, -0.07560052, -0.04696580, -10.74768162, 0.99560452, 0.00069522, 0.00034627, 0.09365397, -0.00186814, 0.98803568, -0.78116763, 87.59300232, 1211.47338867, 39.43000031, 0.00000000
1, 2.0099, 201, 0.00320936, -0.98994720, -0.22098596, 1.92785573, 1.98197234, -0.09881393, 12.69814968, -67.33399963, 48.02755737, -0.05609803, -0.04171059, -10.72878742, 0.99562013, 0.00052143, 0.00031663, 0.09348974, -0.00396729, 0.99105150, -0.77901316, 87.59300232, 1211.47338867, 39.43000031, 0.00000000
1, 2.0199, 202, 0.00250165, -0.99111152, -0.21930978, 1.92783952, 1.92994082, -0.06475118, 12.77127552, -66.23451233, 48.04659271, -0.03661571, -0.03690016, -10.71030617, 0.99563527, 0.00034819, 0.00029079, 0.09332910, -0.00317701, 0.99188203, -0.78068972, 87.59300232, 1211.47338867, 39.43000031, 0.00000000
1, 2.0299, 203, -0.00024953, -0.98954624, -0.22259006, 1.81985128, 1.94596291, -0.04650557, 12.33250427, -65.13504028, 47.76111221, -0.01820372, -0.03224627, -10.69162941, 0.99565047, 0.00018438, 0.00026538, 0.09316676, -0.00034592, 0.98998141, -0.77740967, 87.59300232, 1211.47338867, 39.43000031, 0.00000000
1, 2.0399, 204, -0.00099608, -0.98642117, -0.22429885, 1.65882826, 2.06648517, -0.14894889, 12.36906433, -65.88268280, 47.76111221, -0.00137555, -0.02633631, -10.67197990, 0.99566644, 0.00003332, 0.00022772, 0.09299599, 0.00049815, 0.98655170, -0.77570099, 87.59300232, 1211.47338867, 39.43000031, 0.00000000
1, 2.0499, 205, -0.00095437, -0.98252529, -0.22187053, 1.56837308, 2.09951496, -0.11282106, 12.88097191, -67.42195129, 48.00852585, 0.00073096, -0.03721685, -10.70103741, 0.99564284, 0.00002393, 0.00032396, 0.09324846, 0.00049377, 0.98243427, -0.77812940, 87.59300232, 1211.47338867, 39.43000031, 0.00000000
1, 2.0599, 206, -0.00165992, -0.98135805, -0.22113141, 1.29563808, 2.21432185, 0.08378851, 12.88097191, -67.42195129, 48.00852585, 0.01395419, -0.03327117, -10.67939377, 0.99566042, -0.00009423, 0.00030042, 0.09306037, 0.00105081, 0.98119289, -0.77886844, 87.59300232, 1211.47338867, 39.43000031, 0.00000000
1, 2.0699, 207, 0.00272444, -0.98967451, -0.21542022, 1.00722420, 2.29697514, 0.13914363, 12.33250427, -66.71829224, 47.95143127, 0.02428068, -0.02969475, -10.65678120, 0.99567878, -0.00018691, 0.00027769, 0.09286389, -0.00326456, 0.98932189, -0.78457963, 87.59300232, 1211.47338867, 39.43000031, 0.00000000
1, 2.0799, 208, 0.00583533, -0.99670053, -0.21155979, 0.82581210, 2.31042814, 0.28060800, 12.69814968, -65.00309753, 48.16078186, 0.03281181, -0.02746766, -10.63372326, 0.99569750, -0.00026289, 0.00026520, 0.09266353, -0.00632587, 0.99618012, -0.78843987, 87.59300232, 1211.47338867, 39.43000031, 0.00000000
1, 2.0899, 209, 0.00850762, -0.99424505, -0.21009764, 0.50595903, 2.06861687, 0.22376804, 12.29593849, -65.04708099, 47.91336823, 0.03810999, -0.02521547, -10.61310196, 0.99571413, -0.00031080, 0.00024986, 0.09248433, -0.00896342, 0.99360394, -0.78990203, 87.59300232, 1211.47338867, 39.43000031, 0.00000000
1, 2.0999, 210, 0.00924589, -0.98700893, -0.21206842, 0.36481786, 1.70613694, 0.28689238, 11.85716152, -65.22299194, 48.23691177, 0.04686550, -0.02818729, -10.64708614, 0.99568659, -0.00038439, 0.00028286, 0.09277958, -0.00969433, 0.98628235, -0.78793120, 87.59300232, 1211.47338867, 39.43000031, 0.00000000
1, 2.1099, 211, 0.01147220, -0.97949469, -0.21485171, 0.22641431, 1.31221664, 0.17356439, 12.07655048, -65.13504028, 47.78014374, 0.04927820, -0.02706687, -10.63392448, 0.99569726, -0.00040630, 0.00027504, 0.09266523, -0.01195370, 0.97865236, -0.78514785, 87.59300232, 1211.47338867, 39.43000031, 0.00000000
1, 2.1199, 212, 0.01215255, -0.97517574, -0.21552098, 0.35621905, 1.05820262, 0.02720042, 12.07655048, -65.13504028, 47.78014374, 0.05294982, -0.02506424, -10.62356663, 0.99570566, -0.00043984, 0.00026056, 0.09257522, -0.01260580, 0.97427559, -0.78447855, 87.59300232, 1211.47338867, 39.43000031, 0.00000000
1, 2.1299, 213, 0.01177267, -0.97891062, -0.21487500, 0.41538677, 0.92627376, -0.27458552, 11.74746990, -67.77378845, 48.06562424, 0.05720585, -0.02039576, -10.61516666, 0.99571240, -0.00048061, 0.00022340, 0.09250224, -0.01215946, 0.97794586, -0.78512448, 87.59300232, 1211.47338867, 39.43000031, 0.00000000
1, 2.1399, 214, 0.01137977, -0.97965223, -0.21460769, 0.61478400, 0.82633740, -0.36518824, 12.29593849, -64.87116241, 47.72304535, 0.06344372, -0.01505886, -10.60795212, 0.99571812, -0.00053913, 0.00018203, 0.09243956, -0.01167930, 0.97858727, -0.78539181, 87.59300232, 1211.47338867, 39.43000031, 0.00000000
1, 2.1499, 215, 0.00871499, -0.98095870, -0.21544614, 0.95810270, 0.67606831, -0.45728949, 12.07655048, -65.48686981, 47.72304535, 0.06646100, -0.01353149, -10.65355015, 0.99568129, -0.00056651, 0.00017142, 0.09283578, -0.00893102, 0.97978157, -0.78455317, 87.59300232, 1211.47338867, 39.43000031, 0.00000000
1, 2.1599, 216, 0.00682436, -0.98297459, -0.21501972, 1.01404738, 0.57500648, -0.54747695, 11.96685791, -65.13504028, 47.30434418, 0.07665201, -0.00695441, -10.64922333, 0.99568474, -0.00066040, 0.00012250, 0.09279820, -0.00698798, 0.98170817, -0.78497946, 87.59300232, 1211.47338867, 39.43000031, 0.00000000
1, 2.1699, 217, 0.00421763, -0.98431879, -0.21533474, 1.33806586, 0.44031662, -0.55130005, 11.96685791, -65.13504028, 47.30434418, 0.09007609, -0.00062459, -10.64626694, 0.99568707, -0.00078217, 0.00007835, 0.09277254, -0.00427364, 0.98283386, -0.78466415, 87.59300232, 1211.47338867, 39.43000031, 0.00000000
1, 2.1799, 218, 0.00428744, -0.98672456, -0.21544354, 1.31983805, 0.52651292, -0.58458865, 12.07655048, -65.22299194, 47.85627365, 0.10331190, 0.00621405, -10.64253616, 0.99568999, -0.00090271, 0.00002962, 0.09274017, -0.00422395, 0.98500764, -0.78455502, 87.59300232, 1211.47338867, 39.43000031, 0.00000000
1, 2.1899, 219, 0.00594521, -0.98851860, -0.21417679, 1.08643651, 0.36830321, -0.46415254, 12.80784130, -65.75074005, 47.66595078, 0.11421086, 0.01153278, -10.64006329, 0.99569190, -0.00100172, -0.00000780, 0.09271872, -0.00577901, 0.98658705, -0.78582132, 87.59300232, 1211.47338867, 39.43000031, 0.00000000
1, 2.1999, 220, 0.00646499, -0.98767024, -0.21136510, 0.97780687, 0.40090498, -0.41039979, 12.55188751, -66.23451233, 48.35110474, 0.12775448, -0.00340574, -10.68796444, 0.99565297, -0.00110725, 0.00013342, 0.09313479, -0.00629312, 0.98555267, -0.78863263, 87.59300232, 1211.47338867, 39.43000031, 0.00000000
1, 2.2099, 221, 0.00437542, -0.98641360, -0.21180966, 0.72361219, 0.39521021, -0.18122374, 12.58845234, -66.98216248, 47.98949814, 0.13503827, -0.00079278, -10.68457508, 0.99565566, -0.00117267, 0.00011661, 0.09310538, -0.00440844, 0.98409975, -0.78818762, 87.59300232, 1211.47338867, 39.43000031, 0.00000000
1, 2.2199, 222, 0.00628583, -0.98501456, -0.20977882, 0.49067435, 0.42825994, -0.21497276, 12.58845234, -66.98216248, 47.98949814, 0.13997984, 0.00221832, -10.68091011, 0.99565852, -0.00121805, 0.00009442, 0.09307355, -0.00626209, 0.98260570, -0.79021829, 87.59300232, 1211.47338867, 39.43000031, 0.00000000
1, 2.2299, 223, 0.00551640, -0.98567730, -0.20905353, 0.72350985, 0.32573947, -0.12994905, 12.55188751, -65.31095886, 48.04659271, 0.14725031, 0.00418368, -10.67809582, 0.99566066, -0.00128282, 0.00008322, 0.09304911, -0.00545661, 0.98315960, -0.79094338, 87.59300232, 1211.47338867, 39.43000031, 0.00000000
1, 2.2399, 224, 0.00911894, -0.98779655, -0.20659867, 0.45715505, 0.17068699, -0.22028539, 11.78403568, -65.17901611, 47.66595078, 0.15183254, 0.00670584, -10.67694378, 0.99566162, -0.00132469, 0.00006501, 0.09303912, -0.00901638, 0.98517543, -0.79339790, 87.59300232, 1211.47338867, 39.43000031, 0.00000000
1, 2.2499, 225, 0.00983823, -0.98610342, -0.20697868, 0.42261204, -0.00140864, -0.20621946, 12.25937271, -65.39891052, 47.87530899, 0.21317941, 0.00166147, -10.73110962, 0.99561667, -0.00185354, 0.00015952, 0.09350961, -0.00972929, 0.98315382, -0.79301691, 87.59300232, 1211.47338867, 39.43000031, 0.00000000
1, 2.2599, 226, 0.01409511, -0.98471582, -0.20790681, 0.42262825, 0.05062276, -0.24028224, 12.58845234, -66.71829224, 47.89433289, 0.21740782, 0.00411591, -10.73117065, 0.99561661, -0.00189229, 0.00014165, 0.09351019, -0.01403705, 0.98094308, -0.79208612, 87.59300232, 1211.47338867, 39.43000031, 0.00000000
1, 2.2699, 227, 0.01431479, -0.98401636, -0.20956090, 0.38775650, -0.13919878, -0.19143137, 12.58845234, -66.71829224, 47.89433289, 0.22126694, 0.00569730, -10.73298836, 0.99561507, -0.00192710, 0.00013109, 0.09352601, -0.01422726, 0.98018336, -0.79043174, 87.59300232, 1211.47338867, 39.43000031, 0.00000000
1, 2.2799, 228, 0.01363443, -0.98368037, -0.21024282, 0.37069243, -0.20766398, -0.21039687, 12.77127552, -66.19053650, 47.83723831, 0.22494313, 0.00731549, -10.73550701, 0.99561286, -0.00196036, 0.00012007, 0.09354790, -0.01351563, 0.97977686, -0.78974950, 87.59300232, 1211.47338867, 39.43000031, 0.00000000
1, 2.2899, 229, 0.01140340, -0.98548168, -0.21021856, 0.42455718, -0.24183403, -0.19370174, 12.29593849, -66.89420319, 47.81820679, 0.22915626, 0.00869496, -10.73833942, 0.99561048, -0.00199809, 0.00011158, 0.09357253, -0.01126121, 0.98150539, -0.78977352, 87.59300232, 1211.47338867, 39.43000031, 0.00000000
1, 2.2999, 230, 0.00964869, -0.98750418, -0.21120606, 0.42357093, -0.29501164, -0.08934687, 12.62501812, -66.01461792, 47.51369476, 0.24530129, -0.00339155, -10.79306889, 0.99556541, -0.00212838, 0.00023079, 0.09404778, -0.00954793, 0.98340797, -0.78878552, 87.59300232, 1211.47338867, 39.43000031, 0.00000000
1, 2.3099, 231, 0.00692696, -0.98744786, -0.21151230, 0.38947520, -0.32787925, -0.19540341, 12.58845234, -65.57482910, 47.78014374, 0.24915317, -0.00217047, -10.79672623, 0.99556231, -0.00216284, 0.00022341, 0.09407957, -0.00697143, 0.98311871, -0.78847831, 87.59300232, 1211.47338867, 39.43000031, 0.00000000
1, 2.3199, 232, 0.00435810, -0.98493481, -0.20887625, 0.35421595, -0.20608537, -0.31578311, 12.58845234, -65.57482910, 47.78014374, 0.25266328, 0.00048218, -10.79944706, 0.99556005, -0.00219551, 0.00020330, 0.09410326, -0.00436898, 0.98055315, -0.79111421, 87.59300232, 1211.47338867, 39.43000031, 0.00000000
1, 2.3299, 233, 0.00488482, -0.98366547, -0.20766142, 0.42829725, -0.16806504, -0.50857180, 12.29593849, -65.53085327, 48.10368729, 0.25691766, 0.00509806, -10.80222130, 0.99555767, -0.00223626, 0.00016675, 0.09412745, -0.00482521, 0.97920418, -0.79232860, 87.59300232, 1211.47338867, 39.43000031, 0.00000000
1, 2.3399, 234, 0.00443790, -0.98316419, -0.20698582, 0.30078247, -0.08471875, -0.41853783, 12.07655048, -66.01461792, 48.08465195, 0.25990191, 0.00901401, -10.80397320, 0.99555618, -0.00226540, 0.00013521, 0.09414274, -0.00430701, 0.97864604, -0.79300398, 87.59300232, 1211.47338867, 39.43000031, 0.00000000
1, 2.3499, 235, 0.00614010, -0.98580623, -0.20209399, 0.33695811, -0.11874291, -0.41936386, 12.36906433, -66.27849579, 48.02755737, 0.31571752, -0.00966020, -10.85793877, 0.99551058, -0.00273482, 0.00034459, 0.09461106, -0.00603723, 0.98100859, -0.79789442, 87.59300232, 1211.47338867, 39.43000031, 0.00000000
1, 2.3599, 236, 0.00792784, -0.98900402, -0.20258966, 0.44227371, 0.10480071, -0.39740807, 12.88097191, -68.21358490, 48.12272263, 0.32015005, -0.00556189, -10.85780907, 0.99551058, -0.00277671, 0.00031264, 0.09461001, -0.00804981, 0.98344141, -0.79739487, 87.59300232, 1211.47338867, 39.43000031, 0.00000000
1, 2.3699, 237, 0.01162444, -0.99209738, -0.20210995, 0.13469940, 0.13384907, -0.22007315, 12.36906433, -65.00309753, 47.60885620, 0.32150096, -0.00312395, -10.85698128, 0.99551117, -0.00279046, 0.00029256, 0.09460287, -0.01169361, 0.98649687, -0.79787439, 87.59300232, 1211.47338867, 39.43000031, 0.00000000
1, 2.3799, 238, 0.01039888, -0.99111491, -0.20174707, 0.18547635, 0.30407953, -0.11117977, 12.36906433, -65.00309753, 47.60885620, 0.32339364, -0.00140213, -10.85425377, 0.99551344, -0.00280833, 0.00027910, 0.09457922, -0.01043019, 0.98548603, -0.79823703, 87.59300232, 1211.47338867, 39.43000031, 0.00000000
1, 2.3899, 239, 0.01042160, -0.98751569, -0.20381328, 0.22165211, 0.27005538, -0.11200581, 12.00342369, -64.60728455, 47.53272629, 0.32564077, 0.00025855, -10.85187912, 0.99551535, -0.00282923, 0.00026647, 0.09455863, -0.01042925, 0.98184299, -0.79617059, 87.59300232, 1211.47338867, 39.43000031, 0.00000000
1, 2.3999, 240, 0.01127272, -0.98554951, -0.20200531, 0.31278634, 0.08179180, -0.09866439, 12.62501812, -65.17901611, 48.00852585, 0.40121853, -0.00650251, -10.90594006, 0.99546850, -0.00348005, 0.00038921, 0.09502786, -0.01128764, 0.97951770, -0.79797637, 87.59300232, 1211.47338867, 39.43000031, 0.00000000
1, 2.4099, 241, 0.00721033, -0.98726302, -0.20150813, 0.25814027, 0.20172568, -0.11355401, 12.62501812, -67.07012177, 47.85627365, 0.40382069, -0.00496072, -10.90423870, 0.99546981, -0.00350394, 0.00037792, 0.09501311, -0.00730814, 0.98022979, -0.79846716, 87.59300232, 1211.47338867, 39.43000031, 0.00000000
1, 2.4199, 242, 0.00387912, -0.98795134, -0.20154946, 0.22598980, -0.07156730, -0.20709281, 12.11311531, -66.76226807, 47.68498611, 0.40605837, -0.00307850, -10.90538979, 0.99546885, -0.00352493, 0.00036346, 0.09502317, -0.00394104, 0.98087269, -0.79842550, 87.59300232, 1211.47338867, 39.43000031, 0.00000000
1, 2.4299, 243, 0.00406851, -0.98926467, -0.20318753, 0.13293169, 0.16643535, -0.11391284, 12.11311531, -66.76226807, 47.68498611, 0.40740365, -0.00162067, -10.90401363, 0.99546993, -0.00353783, 0.00035187, 0.09501126, -0.00410621, 0.98215705, -0.79678726, 87.59300232, 1211.47338867, 39.43000031, 0.00000000
1, 2.4399, 244, 0.00568906, -0.98849243, -0.20230277, -0.04969773, 0.42117384, -0.03768518, 12.51532650, -65.31095886, 47.72304535, 0.40695447, -0.00037394, -10.89996910, 0.99547327, -0.00353498, 0.00034054, 0.09497616, -0.00569908, 0.98138714, -0.79767203, 87.59300232, 1211.47338867, 39.43000031, 0.00000000
1, 2.4499, 245, 0.00569467, -0.98627996, -0.20342529, -0.01234218, 0.28451958, -0.05825079, 12.58845234, -65.00309753, 47.85627365, 0.46860701, -0.06400604, -10.94879723, 0.99543071, -0.00401742, 0.00094613, 0.09539786, -0.00596845, 0.97890842, -0.79654723, 87.59300232, 1211.47338867, 39.43000031, 0.00000000
1, 2.4599, 246, 0.00669770, -0.98585963, -0.20205750, 0.21764807, 0.38668624, 0.10139820, 12.69814968, -66.23451233, 48.14175415, 0.47082785, -0.06419959, -10.94483852, 0.99543393, -0.00403658, 0.00094952, 0.09536345, -0.00781512, 0.97766531, -0.79790831, 87.59300232, 1211.47338867, 39.43000031, 0.00000000
1, 2.4699, 247, 0.00661497, -0.98842043, -0.20213830, 0.38057354, 0.40711099, -0.02171911, 12.51532650, -66.01461792, 48.12272263, 0.47468626, -0.06314532, -10.94094563, 0.99543709, -0.00407101, 0.00094344, 0.09532964, -0.00772731, 0.98016053, -0.79782701, 87.59300232, 1211.47338867, 39.43000031, 0.00000000
1, 2.4799, 248, 0.00569010, -0.98597473, -0.20345391, 0.40056899, 0.28832847, -0.09459078, 12.51532650, -66.01461792, 48.12272263, 0.47871345, -0.06161615, -10.93836689, 0.99543905, -0.00410728, 0.00093341, 0.09530726, -0.00677559, 0.97764844, -0.79651082, 87.59300232, 1211.47338867, 39.43000031, 0.00000000
1, 2.4899, 249, 0.00594467, -0.98602057, -0.20418990, 0.41848442, 0.23643772, -0.06057996, 12.84440613, -66.14656067, 48.10368729, 0.48291567, -0.06053714, -10.93622112, 0.99544066, -0.00414470, 0.00092746, 0.09528862, -0.00700712, 0.97762173, -0.79577428, 87.59300232, 1211.47338867, 39.43000031, 0.00000000
1, 2.4999, 250, 0.00703436, -0.98724747, -0.20267916, 0.43525723, 0.14852217, 0.07814689, 12.55188751, -65.35493469, 47.74208069, 0.50592089, -0.08939469, -10.98639297, 0.99539798, -0.00432002, 0.00119916, 0.09572315, -0.00821668, 0.97868931, -0.79728353, 87.59300232, 1211.47338867, 39.43000031, 0.00000000
1, 2.5099, 251, 0.00719004, -0.98479038, -0.20370595, 0.34653696, 0.04490213, 0.07623991, 12.47876072, -65.39891052, 47.58982086, 0.50939226, -0.09004594, -10.98584270, 0.99539834, -0.00434964, 0.00120770, 0.09571829, -0.00876131, 0.97591764, -0.79625344, 87.59300232, 1211.47338867, 39.43000031, 0.00000000
1, 2.5199, 252, 0.00713308, -0.98528415, -0.20337166, 0.22333708, -0.05612249, 0.29477054, 12.40563011, -67.07012177, 48.35110474, 0.51162487, -0.09304501, -10.98580265, 0.99539816, -0.00436653, 0.00123561, 0.09571780, -0.00872960, 0.97636402, -0.79658729, 87.59300232, 1211.47338867, 39.43000031, 0.00000000
1, 2.5299, 253, 0.00793364, -0.98657143, -0.20414136, 0.11983653, -0.18959261, 0.40708888, 12.40563011, -67.07012177, 48.35110474, 0.51281422, -0.09741609, -10.98682213, 0.99539727, -0.00437320, 0.00127461, 0.09572648, -0.00961095, 0.97762603, -0.79581726, 87.59300232, 1211.47338867, 39.43000031, 0.00000000
1, 2.5399, 254, 0.00657690, -0.98661399, -0.20464878, 0.23092875, -0.35798383, 0.26258233, 12.40563011, -68.12562561, 47.93240356, 0.51509362, -0.10072394, -10.98982143, 0.99539465, -0.00439020, 0.00130537, 0.09575237, -0.00831470, 0.97763735, -0.79530942, 87.59300232, 1211.47338867, 39.43000031, 0.00000000
1, 2.5499, 255, 0.00625332, -0.98598605, -0.20415552, -0.01693947, -0.54691470, 0.15389885, 12.62501812, -66.67430878, 48.23691177, 0.52637678, -0.12398577, -11.04555988, 0.99534750, -0.00446803, 0.00151903, 0.09623545, -0.00813011, 0.97694528, -0.79580182, 87.59300232, 1211.47338867, 39.43000031, 0.00000000
1, 2.5599, 256, 0.00656972, -0.98483366, -0.20346691, 0.12662074, -0.71903616, 0.25531077, 12.40563011, -66.93818665, 47.93240356, 0.52758712, -0.12796551, -11.05208015, 0.99534190, -0.00447511, 0.00155487, 0.09629191, -0.00877560, 0.97563207, -0.79648829, 87.59300232, 1211.47338867, 39.43000031, 0.00000000
1, 2.5699, 257, 0.00717721, -0.98529023, -0.20490965, -0.19398125, -0.77102101, 0.13215071, 12.25937271, -66.93818665, 47.85627365, 0.52557278, -0.13084717, -11.05932808, 0.99533582, -0.00445509, 0.00157849, 0.09635477, -0.00944231, 0.97609794, -0.79504555, 87.59300232, 1211.47338867, 39.43000031, 0.00000000
1, 2.5799, 258, 0.00608793, -0.98761898, -0.20715356, -0.19526379, -0.73786163, 0.20316502, 12.25937271, -66.93818665, 47.85627365, 0.52355552, -0.13435604, -11.06610775, 0.99533021, -0.00443453, 0.00160753, 0.09641355, -0.00840599, 0.97847289, -0.79280186, 87.59300232, 1211.47338867, 39.43000031, 0.00000000
1, 2.5899, 259, 0.00430378, -0.98777759, -0.20449734, -0.19417009, -0.85793114, 0.20063737, 12.11311531, -66.14656067, 47.66595078, 0.52154070, -0.13809055, -11.07406139, 0.99532354, -0.00441377, 0.00163858, 0.09648250, -0.00669096, 0.97866976, -0.79545832, 87.59300232, 1211.47338867, 39.43000031, 0.00000000
1, 2.5999, 260, 0.00356938, -0.98934722, -0.20620888, -0.17655607, -0.58076710, 0.04820569, 12.29593849, -66.36645508, 48.12272263, 0.51991534, -0.15945263, -11.12939835, 0.99527681, -0.00438078, 0.00182487, 0.09696230, -0.00608247, 0.98026103, -0.79374665, 87.59300232, 1211.47338867, 39.43000031, 0.00000000
1, 2.6099, 261, 0.00360823, -0.98772633, -0.20650452, -0.12284761, -0.59778434, 0.06526189, 12.47876072, -66.98216248, 47.85627365, 0.51863605, -0.16132572, -11.13508606, 0.99527204, -0.00436800, 0.00184028, 0.09701166, -0.00642004, 0.97866082, -0.79345047, 87.59300232, 1211.47338867, 39.43000031, 0.00000000
1, 2.6199, 262, -0.00019601, -0.98542029, -0.20742182, -0.05082398, -0.58483535, -0.14493909, 13.10035515, -66.98216248, 48.27497482, 0.51807576, -0.16111642, -11.14110470, 0.99526691, -0.00436321, 0.00183821, 0.09706394, -0.00262138, 0.97637618, -0.79253328, 87.59300232, 1211.47338867, 39.43000031, 0.00000000
1, 2.6299, 263, -0.00161994, -0.98201162, -0.20642835, -0.02406544, -0.47252062, -0.10544249, 13.10035515, -66.98216248, 48.27497482, 0.51779389, -0.16106403, -11.14593601, 0.99526286, -0.00436073, 0.00183770, 0.09710591, -0.00118856, 0.97297651, -0.79352689, 87.59300232, 1211.47338867, 39.43000031, 0.00000000
1, 2.6399, 264, -0.00200278, -0.98191321, -0.20526263, -0.00819766, -0.35345671, -0.03267462, 12.36906433, -65.26697540, 47.98949814, 0.51768517, -0.16147296, -11.14946842, 0.99525982, -0.00435938, 0.00184130, 0.09713657, -0.00080947, 0.97287762, -0.79469264, 87.59300232, 1211.47338867, 39.43000031, 0.00000000
1, 2.6499, 265, -0.00283441, -0.98204392, -0.20548803, 0.25797951, 0.00943490, -0.06101634, 12.40563011, -65.00309753, 48.04659271, 0.53361636, -0.22306335, -11.19866657, 0.99521685, -0.00444451, 0.00239164, 0.09756103, -0.00025098, 0.97292084, -0.79446548, 87.59300232, 1211.47338867, 39.43000031, 0.00000000
1, 2.6599, 266, -0.00156349, -0.98554093, -0.20288388, 0.23961654, -0.07790241, 0.02509523, 12.25937271, -65.92666626, 48.16078186, 0.53600615, -0.22347093, -11.19940567, 0.99521607, -0.00446490, 0.00239724, 0.09756738, -0.00233056, 0.97619504, -0.79706478, 87.59300232, 1211.47338867, 39.43000031, 0.00000000
1, 2.6699, 267, -0.00180257, -0.98952442, -0.20377658, 0.07505850, 0.10779262, 0.13497263, 12.47876072, -66.49839020, 47.97046280, 0.53676814, -0.22456479, -11.19807720, 0.99521720, -0.00447061, 0.00240734, 0.09755579, -0.00211164, 0.98016125, -0.79617190, 87.59300232, 1211.47338867, 39.43000031, 0.00000000
1, 2.6799, 268, 0.00063896, -0.99081701, -0.20462070, -0.03109202, 0.05663639, 0.06390866, 12.51532650, -67.42195129, 47.78014374, 0.53646928, -0.22507724, -11.19739246, 0.99521774, -0.00446759, 0.00241151, 0.09754983, -0.00456194, 0.98145062, -0.79532778, 87.59300232, 1211.47338867, 39.43000031, 0.00000000
1, 2.6899, 269, 0.00314197, -0.98823929, -0.20531332, -0.06839900, 0.34938493, -0.01771400, 12.51532650, -67.42195129, 47.78014374, 0.53581381, -0.22418436, -11.19400024, 0.99522072, -0.00446273, 0.00240306, 0.09752041, -0.00706533, 0.97888047, -0.79463518, 87.59300232, 1211.47338867, 39.43000031, 0.00000000
1, 2.6999, 270, 0.00528678, -0.98736852, -0.20439138, -0.37326819, 0.24293041, 0.05129395, 12.58845234, -65.75074005, 47.89433289, 0.54162401, -0.23562643, -11.24339008, 0.99517810, -0.00450237, 0.00250932, 0.09794873, -0.00924983, 0.97801316, -0.79555696, 87.59300232, 1211.47338867, 39.43000031, 0.00000000
1, 2.7099, 271, 0.00524602, -0.98603791, -0.20570531, -0.37484691, 0.36242676, 0.08896765, 12.58845234, -65.88268280, 48.00852585, 0.53790045, -0.23574793, -11.23962307, 0.99518156, -0.00447002, 0.00250705, 0.09791610, -0.00935703, 0.97662902, -0.79424196, 87.59300232, 1211.47338867, 39.43000031, 0.00000000
1, 2.7199, 272, 0.00562352, -0.98460358, -0.20544475, -0.44690201, 0.34413809, 0.12396029, 13.46600056, -66.54237366, 48.31304169, 0.53346020, -0.23624983, -11.23594189, 0.99518490, -0.00443111, 0.00250747, 0.09788421, -0.00974620, 0.97525829, -0.79450309, 87.59300232, 1211.47338867, 39.43000031, 0.00000000
1, 2.7299, 273, 0.00250020, -0.98596418, -0.20321175, -0.28771690, 0.23200616, 0.07167734, 12.73470974, -66.41043091, 48.33206940, 0.53060675, -0.23646952, -11.23348999, 0.99518704, -0.00440619, 0.00250685, 0.09786296, -0.00662514, 0.97668576, -0.79673672, 87.59300232, 1211.47338867, 39.43000031, 0.00000000
1, 2.7399, 274, 0.00055259, -0.98913789, -0.20485574, -0.52006233, 0.09238195, 0.10460947, 12.73470974, -66.41043091, 48.33206940, 0.52540129, -0.23730057, -11.23231030, 0.99518824, -0.00436030, 0.00250957, 0.09785280, -0.00468795, 0.97993195, -0.79509330, 87.59300232, 1211.47338867, 39.43000031, 0.00000000
1, 2.7499, 275, -0.00180273, -0.99128723, -0.20412768, -0.64563698, 0.17802066, 0.05405923, 12.73470974, -66.85022736, 48.48432922, 0.52647203, -0.26693404, -11.27997780, 0.99514699, -0.00434314, 0.00276965, 0.09826550, -0.00247083, 0.98215586, -0.79582149, 87.59300232, 1211.47338867, 39.43000031, 0.00000000
1, 2.7599, 276, -0.00174809, -0.99177557, -0.20600745, -0.72886592, 0.06355194, -0.33481544, 12.62501812, -66.32247925, 48.12272263, 0.51916844, -0.26352105, -11.27995682, 0.99514735, -0.00428264, 0.00273375, 0.09826565, -0.00287143, 0.98265779, -0.79394031, 87.59300232, 1211.47338867, 39.43000031, 0.00000000
1, 2.7699, 277, -0.00017163, -0.98848641, -0.20824352, -0.85733461, 0.19778344, -0.20855212, 13.24661255, -65.22299194, 47.81820679, 0.51061386, -0.26107502, -11.27834988, 0.99514902, -0.00421048, 0.00270511, 0.09825198, -0.00440155, 0.97951788, -0.79170585, 87.59300232, 1211.47338867, 39.43000031, 0.00000000
1, 2.7799, 278, -0.00240902, -0.98595864, -0.20821907, -0.89637148, 0.38446328, -0.09903815, 12.03998470, -65.61880493, 47.76111221, 0.50168526, -0.25931373, -11.27468872, 0.99515247, -0.00413454, 0.00268203, 0.09822047, -0.00212141, 0.97714418, -0.79173177, 87.59300232, 1211.47338867, 39.43000031, 0.00000000
1, 2.7899, 279, -0.00553972, -0.98393875, -0.20774648, -0.95519382, 0.58614928, 0.13390006, 12.03998470, -65.61880493, 47.76111221, 0.49218211, -0.25940987, -11.26856804, 0.99515814, -0.00405207, 0.00267450, 0.09816754, 0.00100742, 0.97528535, -0.79220581, 87.59300232, 1211.47338867, 39.43000031, 0.00000000
1, 2.7999, 280, -0.00748177, -0.98681462, -0.20695756, -1.13654101, 0.80772847, 0.13911338, 12.80784130, -65.17901611, 48.02755737, 0.48020712, -0.27789637, -11.31040573, 0.99512231, -0.00393120, 0.00282622, 0.09853044, 0.00288379, 0.97834796, -0.79299599, 87.59300232, 1211.47338867, 39.43000031, 0.00000000
1, 2.8099, 281, -0.00218751, -0.99260491, -0.20011066, -1.22914660, 0.94224137, 0.26527286, 12.44219589, -67.07012177, 47.98949814, 0.46797389, -0.27854422, -11.30049419, 0.99513125, -0.00382466, 0.00282100, 0.09844464, -0.00267247, 0.98435420, -0.79984355, 87.59300232, 1211.47338867, 39.43000031, 0.00000000
1, 2.8199, 282, 0.00179875, -0.99654704, -0.19572626, -1.35673106, 1.06017983, 0.33845600, 12.40563011, -67.24604034, 48.27497482, 0.45448244, -0.27965617, -11.28925514, 0.99514127, -0.00370682, 0.00281870, 0.09834732, -0.00667094, 0.98852396, -0.80422974, 87.59300232, 1211.47338867, 39.43000031, 0.00000000
1, 2.8299, 283, 0.00387849, -0.99181783, -0.19794650, -1.51932275, 0.81476307, 0.57989019, 12.91753292, -66.58635712, 47.76111221, 0.43936127, -0.28363925, -11.27989101, 0.99514973, -0.00357231, 0.00284002, 0.09826624, -0.00880034, 0.98404443, -0.80201113, 87.59300232, 1211.47338867, 39.43000031, 0.00000000
1, 2.8399, 284, 0.00485376, -0.98472840, -0.20203876, -1.69808364, 0.77933729, 0.56211412, 12.91753292, -66.58635712, 47.76111221, 0.42244148, -0.28751943, -11.27090740, 0.99515790, -0.00342227, 0.00285894, 0.09818850, -0.00984706, 0.97724569, -0.79792076, 87.59300232, 1211.47338867, 39.43000031, 0.00000000
1, 2.8499, 285, 0.00691196, -0.98309404, -0.20326607, -1.74974942, 0.86811763, 0.35319898, 13.10035515, -65.53085327, 48.04659271, 0.40637213, -0.28781134, -11.31312370, 0.99512213, -0.00328142, 0.00284892, 0.09855551, -0.01194663, 0.97590810, -0.79669547, 87.59300232, 1211.47338867, 39.43000031, 0.00000000
1, 2.8599, 286, 0.00664844, -0.98158985, -0.20418122, -1.47815716, 0.71728569, 0.26130536, 12.77127552, -66.01461792, 48.21787643, 0.39164183, -0.28887513, -11.30537891, 0.99512917, -0.00315278, 0.00284527, 0.09848858, -0.01168718, 0.97466445, -0.79578209, 87.59300232, 1211.47338867, 39.43000031, 0.00000000
1, 2.8699, 287, 0.00479970, -0.98012245, -0.20422167, -1.28072119, 0.80574328, 0.19224778, 12.91753292, -65.13504028, 47.76111221, 0.37888157, -0.28907353, -11.29694271, 0.99513674, -0.00304201, 0.00283580, 0.09841563, -0.00984085, 0.97342664, -0.79574317, 87.59300232, 1211.47338867, 39.43000031, 0.00000000
1, 2.8799, 288, 0.00354525, -0.98131186, -0.20735151, -1.01311636, 0.82357359, 0.27969533, 12.88097191, -66.58635712, 48.06562424, 0.36882761, -0.29008976, -11.28818417, 0.99514455, -0.00295404, 0.00283577, 0.09833980, -0.00860241, 0.97480977, -0.79261458, 87.59300232, 1211.47338867, 39.43000031, 0.00000000
1, 2.8899, 289, -0.00119353, -0.98466414, -0.20798114, -0.72524112, 0.82697082, 0.20857267, 12.88097191, -66.58635712, 48.06562424, 0.36162844, -0.29039371, -11.27956772, 0.99515212, -0.00289147, 0.00283201, 0.09826513, -0.00387336, 0.97830629, -0.79198593, 87.59300232, 1211.47338867, 39.43000031, 0.00000000
1, 2.8999, 290, -0.00341105, -0.98731875, -0.20796284, -0.61761934, 0.93187779, 0.14013568, 13.39287472, -66.05860138, 47.89433289, 0.35466892, -0.31093135, -11.32058525, 0.99511653, -0.00281234, 0.00300541, 0.09862091, -0.00174366, 0.98108143, -0.79200447, 87.59300232, 1211.47338867, 39.43000031, 0.00000000
1, 2.9099, 291, -0.00500111, -0.98456144, -0.20442207, -0.59730017, 1.07353890, -0.12062292, 12.99066353, -67.02614594, 47.98949814, 0.34877548, -0.30750492, -11.31027889, 0.99512565, -0.00276438, 0.00297033, 0.09853166, -0.00038644, 0.97843385, -0.79554468, 87.59300232, 1211.47338867, 39.43000031, 0.00000000
1, 2.9199, 292, -0.00098240, -0.97978699, -0.20182092, -0.57961118, 1.07339299, -0.10310183, 12.77127552, -65.70676422, 47.97046280, 0.34305200, -0.30424601, -11.29992390, 0.99513477, -0.00271774, 0.00293686, 0.09844197, -0.00435053, 0.97376066, -0.79814667, 87.59300232, 1211.47338867, 39.43000031, 0.00000000
1, 2.9299, 293, 0.00430342, -0.97697878, -0.19900468, -0.32595024, 0.92242044, -0.19494352, 12.55188751, -65.17901611, 48.06562424, 0.33984742, -0.30040249, -11.29129028, 0.99514240, -0.00269344, 0.00290053, 0.09836718, -0.00956565, 0.97102642, -0.80096376, 87.59300232, 1211.47338867, 39.43000031, 0.00000000
1, 2.9399, 294, 0.00936890, -0.97853172, -0.20222194, -0.18476650, 0.90352768, -0.01998963, 12.51532650, -66.23451233, 47.76111221, 0.33805427, -0.29830971, -11.28247452, 0.99515003, -0.00267988, 0.00288061, 0.09829074, -0.01458767, 0.97261834, -0.79774702, 87.59300232, 1211.47338867, 39.43000031, 0.00000000
1, 2.9499, 295, 0.00856366, -0.98206985, -0.20287147, -0.22206853, 0.95355839, 0.05148958, 12.51532650, -66.23451233, 47.76111221, 0.35312897, -0.29319331, -11.32549763, 0.99511278, -0.00281412, 0.00285016, 0.09866412, -0.01374320, 0.97611821, -0.79709738, 87.59300232, 1211.47338867, 39.43000031, 0.00000000
1, 2.9599, 296, 0.00513945, -0.98234701, -0.20001863, 0.04732020, 0.99083388, -0.00128598, 13.39287472, -65.61880493, 48.17981720, 0.35367227, -0.29110786, -11.31581116, 0.99512112, -0.00282087, 0.00283228, 0.09858005, -0.01024065, 0.97618228, -0.79994935, 87.59300232, 1211.47338867, 39.43000031, 0.00000000
1, 2.9699, 297, 0.00600105, -0.97871929, -0.19524486, 0.19445907, 1.15235174, -0.36748496, 12.80784130, -66.41043091, 48.10368729, 0.35569611, -0.28510582, -11.30533600, 0.99513018, -0.00284386, 0.00278164, 0.09848920, -0.01101648, 0.97252345, -0.80472344, 87.59300232, 1211.47338867, 39.43000031, 0.00000000
1, 2.9799, 298, 0.00652396, -0.97619683, -0.19226730, 0.19412503, 1.37734377, -0.48580188, 12.88097191, -66.10257721, 47.57079315, 0.35772687, -0.27746955, -11.29291821, 0.99514103, -0.00286836, 0.00271676, 0.09838155, -0.01141776, 0.96997273, -0.80770129, 87.59300232, 1211.47338867, 39.43000031, 0.00000000
1, 2.9899, 299, 0.00779950, -0.97807968, -0.18955924, 0.29840574, 1.39161551, -0.25730297, 12.55188751, -65.09105682, 48.27497482, 0.36079389, -0.27203405, -11.27988243, 0.99515224, -0.00289996, 0.00267186, 0.09826842, -0.01258420, 0.97180718, -0.81040955, 87.59300232, 1211.47338867, 39.43000031, 0.00000000
1, 2.9999, 300, 0.00712523, -0.98612696, -0.18633206, 0.54756153, 1.30466914, -0.06653190, 12.55188751, -65.09105682, 48.27497482, 0.40536091, -0.26117146, -11.32190228, 0.99511510, -0.00329535, 0.00261696, 0.09863265, -0.01180141, 0.97960019, -0.81363565, 87.59300232, 1211.47338867, 39.43000031, 0.00000000
1, 3.0099, 301, 0.01113390, -0.98653811, -0.18749121, 0.51233947, 1.28780818, -0.10193521, 13.50256634, -65.57482910, 48.38916779, 0.41058186, -0.25749093, -11.30958843, 0.99512553, -0.00334414, 0.00258913, 0.09852570, -0.01565316, 0.97940522, -0.81247312, 87.59300232, 1211.47338867, 39.43000031, 0.00000000
1, 3.0199, 302, 0.01891306, -0.98554277, -0.18336844, 0.67854637, 0.94802475, -0.23263545, 12.66158390, -66.98216248, 48.59851837, 0.41742149, -0.25324222, -11.30087948, 0.99513292, -0.00340738, 0.00255785, 0.09845006, -0.02336178, 0.97830868, -0.81659544, 87.59300232, 1211.47338867, 39.43000031, 0.00000000
1, 3.0299, 303, 0.02518886, -0.98278326, -0.18041864, 0.81526411, -0.19936655, -0.30991119, 13.90477753, -65.92666626, 48.14175415, 0.42555752, -0.25062549, -11.30357742, 0.99513036, -0.00348023, 0.00254220, 0.09847340, -0.02957947, 0.97540808, -0.81954455, 87.59300232, 1211.47338867, 39.43000031, 0.00000000
1, 3.0399, 304, 0.03228060, -0.98298651, -0.18421946, 0.45795295, -0.37399453, -0.29491094, 13.28317833, -66.89420319, 48.19884872, 0.43010336, -0.24852285, -11.30789661, 0.99512661, -0.00352142, 0.00252798, 0.09851089, -0.03663241, 0.97549599, -0.81574309, 87.59300232, 1211.47338867, 39.43000031, 0.00000000
1, 3.0499, 305, 0.02820441, -0.98729968, -0.17727970, -0.61657244, -0.39815569, -0.38002253, 13.28317833, -66.89420319, 48.19884872, 0.48945442, -0.20506674, -11.36963081, 0.99507201, -0.00407300, 0.00220382, 0.09904733, -0.03233487, 0.97956574, -0.82268178, 87.59300232, 1211.47338867, 39.43000031, 0.00000000
1, 3.0599, 306, 0.02325449, -0.99362642, -0.17304076, -1.08232975, -0.21055411, -0.53285801, 12.80784130, -67.33399963, 47.72304535, 0.47860807, -0.20029426, -11.37266350, 0.99506980, -0.00398289, 0.00215311, 0.09907407, -0.02678489, 0.98520344, -0.82691753, 87.59300232, 1211.47338867, 39.43000031, 0.00000000
1, 3.0699, 307, 0.02267460, -1.00006378, -0.16933951, -0.93875819, -0.08792643, -0.61861080, 13.24661255, -67.64184570, 48.17981720, 0.46919349, -0.19442360, -11.37469101, 0.99506849, -0.00390617, 0.00209406, 0.09909207, -0.02610563, 0.99181449, -0.83062053, 87.59300232, 1211.47338867, 39.43000031, 0.00000000
1, 3.0799, 308, 0.02591681, -1.00307322, -0.16289507, -0.70342785, -0.22217351, -0.69246644, 12.91753292, -66.32247925, 48.10368729, 0.46213728, -0.18811324, -11.37821865, 0.99506575, -0.00385030, 0.00203328, 0.09912306, -0.02924144, 0.99496830, -0.83706665, 87.59300232, 1211.47338867, 39.43000031, 0.00000000
1, 3.0899, 309, 0.03236108, -0.99801576, -0.15854238, -0.55595011, -0.52836519, -0.78724653, 12.62501812, -66.23451233, 47.91336823, 0.45651281, -0.18150781, -11.38496304, 0.99506021, -0.00380705, 0.00197128, 0.09918195, -0.03557192, 0.99001539, -0.84142041, 87.59300232, 1211.47338867, 39.43000031, 0.00000000
1, 3.0999, 310, 0.03781565, -0.99413830, -0.15571661, -0.44391534, -1.04239094, -0.78081787, 12.62501812, -66.23451233, 47.91336823, 0.52079773, -0.13281599, -11.45271873, 0.99499941, -0.00440647, 0.00160671, 0.09977116, -0.04073569, 0.98591149, -0.84424502, 87.59300232, 1211.47338867, 39.43000031, 0.00000000
1, 3.1099, 311, 0.04325333, -0.99948663, -0.15563402, -0.52775919, -1.57368410, -0.86204427, 13.10035515, -66.05860138, 47.97046280, 0.51535100, -0.12763344, -11.46983814, 0.99498475, -0.00436346, 0.00155762, 0.09992009, -0.04551171, 0.99045134, -0.84432262, 87.59300232, 1211.47338867, 39.43000031, 0.00000000
1, 3.1199, 312, 0.04520110, -1.00826848, -0.15367576, -0.70585221, -2.05909395, -0.64318657, 12.88097191, -67.50991058, 48.67464828, 0.50807542, -0.12559299, -11.49122524, 0.99496639, -0.00430178, 0.00153436, 0.10010597, -0.04740553, 0.99935305, -0.84628201, 87.59300232, 1211.47338867, 39.43000031, 0.00000000
1, 3.1299, 313, 0.04321529, -1.01255488, -0.15240514, -0.92012584, -2.26776099, -0.57660455, 12.99066353, -66.10257721, 47.72304535, 0.49864650, -0.12464307, -11.51449203, 0.99494636, -0.00422043, 0.00151873, 0.10030815, -0.04539856, 1.00378823, -0.84755403, 87.59300232, 1211.47338867, 39.43000031, 0.00000000
1, 3.1399, 314, 0.03563097, -1.01094663, -0.15515329, -1.22116375, -2.52572513, -0.68657672, 13.10035515, -67.33399963, 47.64691544, 0.48618108, -0.12315438, -11.54047394, 0.99492407, -0.00411316, 0.00149583, 0.10053396, -0.03779464, 1.00236964, -0.84480757, 87.59300232, 1211.47338867, 39.43000031, 0.00000000
1, 3.1499, 315, 0.03228441, -1.00993764, -0.15653643, -1.66264164, -2.71190548, -1.05828464, 13.10035515, -67.33399963, 47.64691544, 0.49619842, -0.10270901, -11.61898994, 0.99485469, -0.00421717, 0.00132999, 0.10121629, -0.03432139, 1.00151360, -0.84342599, 87.59300232, 1211.47338867, 39.43000031, 0.00000000
1, 3.1599, 316, 0.03113042, -0.99924958, -0.16074923, -2.47824121, -2.84614277, -1.63869524, 12.40563011, -64.95912170, 47.60885620, 0.47108343, -0.09257305, -11.64992523, 0.99482822, -0.00400775, 0.00122089, 0.10148552, -0.03281959, 0.99084431, -0.83921397, 87.59300232, 1211.47338867, 39.43000031, 0.00000000
1, 3.1699, 317, 0.03076001, -0.99356282, -0.16412780, -3.04465222, -2.96326399, -2.09646058, 12.18624687, -66.23451233, 47.64691544, 0.44028151, -0.07822033, -11.68290138, 0.99480009, -0.00375275, 0.00107009, 0.10177261, -0.03222613, 0.98567271, -0.83583999, 87.59300232, 1211.47338867, 39.43000031, 0.00000000
1, 3.1799, 318, 0.03309684, -0.98953879, -0.16979635, -3.58102059, -3.08698082, -2.13257694, 13.06379032, -67.02614594, 47.76111221, 0.40410590, -0.06378716, -11.71709633, 0.99477082, -0.00345124, 0.00091369, 0.10207024, -0.03430390, 0.98223770, -0.83017623, 87.59300232, 1211.47338867, 39.43000031, 0.00000000
1, 3.1899, 319, 0.03714548, -0.98634464, -0.17142150, -4.17201805, -3.03873205, -2.21764565, 13.35630894, -67.68582916, 47.87530899, 0.36199695, -0.04845094, -11.75093842, 0.99474192, -0.00309914, 0.00074397, 0.10236478, -0.03809075, 0.97974885, -0.82855624, 87.59300232, 1211.47338867, 39.43000031, 0.00000000
1, 3.1999, 320, 0.03971649, -0.98431462, -0.16817895, -4.33748674, -2.40334034, -2.32682920, 13.35630894, -67.68582916, 47.87530899, 0.33129787, -0.01662204, -11.82633018, 0.99467510, -0.00286079, 0.00044213, 0.10302022, -0.04030665, 0.97841454, -0.83180344, 87.59300232, 1211.47338867, 39.43000031, 0.00000000
1, 3.2099, 321, 0.03973300, -0.98022002, -0.16679560, -4.46006775, -1.24295366, -1.98564887, 12.77127552, -66.76226807, 47.89433289, 0.28649381, 0.00017629, -11.84210777, 0.99466187, -0.00248695, 0.00025638, 0.10315768, -0.03984062, 0.97493005, -0.83319038, 87.59300232, 1211.47338867, 39.43000031, 0.00000000
1, 3.2199, 322, 0.03568174, -0.97574139, -0.16453087, -4.33039284, -0.07916477, -1.73306036, 12.66158390, -66.93818665, 47.68498611, 0.24314772, 0.01694710, -11.84603024, 0.99465925, -0.00212580, 0.00007186, 0.10319215, -0.03549349, 0.97121739, -0.83545887, 87.59300232, 1211.47338867, 39.43000031, 0.00000000
1, 3.2299, 323, 0.02653633, -0.97782302, -0.15883045, -4.23298740, 0.68982887, -1.48867321, 12.66158390, -64.60728455, 47.53272629, 0.20085990, 0.03295668, -11.84192181, 0.99466354, -0.00177315, -0.00010525, 0.10315673, -0.02606462, 0.97404969, -0.84116232, 87.59300232, 1211.47338867, 39.43000031, 0.00000000
1, 3.2399, 324, 0.02197587, -0.97954452, -0.15433887, -3.93533874, 1.48124814, -1.47294545, 12.69814968, -65.75074005, 47.38047028, 0.16165082, 0.05049279, -11.83009720, 0.99467468, -0.00144857, -0.00029291, 0.10305427, -0.02121444, 0.97647214, -0.84565616, 87.59300232, 1211.47338867, 39.43000031, 0.00000000
1, 3.2499, 325, 0.02646109, -0.97487938, -0.14816429, -3.24155641, 2.60710931, -1.78538620, 12.99066353, -66.93818665, 47.47563171, 0.15416326, 0.08340287, -11.85661697, 0.99465072, -0.00141330, -0.00058498, 0.10328481, -0.02529524, 0.97231174, -0.85183173, 87.59300232, 1211.47338867, 39.43000031, 0.00000000
1, 3.2599, 326, 0.03821747, -0.97086591, -0.14422259, -2.19365311, 4.04252863, -1.96935463, 12.99066353, -66.93818665, 47.47563171, 0.13270976, 0.11125415, -11.82104111, 0.99468279, -0.00125193, -0.00084646, 0.10297614, -0.03646509, 0.96841955, -0.85577291, 87.59300232, 1211.47338867, 39.43000031, 0.00000000
1, 3.2699, 327, 0.05134127, -0.96588445, -0.14638194, -1.22957230, 4.75596809, -2.11550999, 13.53913212, -66.76226807, 47.98949814, 0.12101186, 0.14206293, -11.77894878, 0.99472028, -0.00117766, -0.00112483, 0.10261095, -0.04906670, 0.96370459, -0.85361314, 87.59300232, 1211.47338867, 39.43000031, 0.00000000
1, 3.2799, 328, 0.05886973, -0.96820897, -0.14665481, -0.52991241, 4.77918100, -2.15231967, 13.39287472, -65.44289398, 47.78014374, 0.11634000, 0.17328766, -11.73679161, 0.99475765, -0.00116455, -0.00140049, 0.10224518, -0.05605166, 0.96615219, -0.85333908, 87.59300232, 1211.47338867, 39.43000031, 0.00000000
1, 3.2899, 329, 0.06537941, -0.97126114, -0.14223649, -0.13734673, 5.07473373, -2.20004225, 12.95409870, -66.19053650, 47.85627365, 0.11564963, 0.20561823, -11.69189739, 0.99479705, -0.00118675, -0.00168223, 0.10185567, -0.06200532, 0.96924567, -0.85775578, 87.59300232, 1211.47338867, 39.43000031, 0.00000000
1, 3.2999, 330, 0.07536686, -0.96803671, -0.13625827, 0.52307254, 5.92586851, -2.51815677, 13.10035515, -65.39891052, 47.38047028, 0.14696077, 0.26908889, -11.68857765, 0.99479842, -0.00151491, -0.00220545, 0.10182789, -0.07126493, 0.96585470, -0.86373085, 87.59300232, 1211.47338867, 39.43000031, 0.00000000
1, 3.3099, 331, 0.08601812, -0.96343648, -0.14173958, 1.71814764, 5.79281473, -3.26289964, 13.10035515, -65.39891052, 47.38047028, 0.16498892, 0.31329486, -11.63913250, 0.99484098, -0.00170959, -0.00257393, 0.10139944, -0.08084983, 0.96068358, -0.85824323, 87.59300232, 1211.47338867, 39.43000031, 0.00000000
1, 3.3199, 332, 0.09593165, -0.95575720, -0.14988372, 2.03827763, 5.08510447, -3.91157722, 12.62501812, -64.51932526, 47.97046280, 0.18610853, 0.36231923, -11.59799862, 0.99487573, -0.00193525, -0.00298154, 0.10104336, -0.08993682, 0.95264775, -0.85009342, 87.59300232, 1211.47338867, 39.43000031, 0.00000000
1, 3.3299, 333, 0.09887181, -0.93896461, -0.16646926, 2.01683998, 4.44304800, -4.54025030, 13.24661255, -65.66278839, 47.87530899, 0.20689638, 0.41611171, -11.56445217, 0.99490321, -0.00216215, -0.00343087, 0.10075334, -0.09196726, 0.93549716, -0.83350086, 87.59300232, 1211.47338867, 39.43000031, 0.00000000
1, 3.3399, 334, 0.08510672, -0.91162121, -0.18522309, 2.71396899, 3.58277202, -5.12297535, 13.75851536, -65.66278839, 47.91336823, 0.23451652, 0.47376552, -11.54061890, 0.99492157, -0.00245183, -0.00390765, 0.10054806, -0.07722858, 0.90772510, -0.81473833, 87.59300232, 1211.47338867, 39.43000031, 0.00000000
1, 3.3499, 335, 0.06689905, -0.89140975, -0.21423016, 4.18371534, 1.74586570, -6.48446512, 13.31974411, -65.35493469, 47.98949814, 0.26287761, 0.55335480, -11.58426476, 0.99487931, -0.00276963, -0.00457273, 0.10092923, -0.05786268, 0.88693798, -0.78571892, 87.59300232, 1211.47338867, 39.43000031, 0.00000000
1, 3.3599, 336, 0.04608075, -0.86952221, -0.23777696, 5.04122972, -0.54590780, -8.66224575, 13.31974411, -65.35493469, 47.98949814, 0.31273687, 0.63689142, -11.60844231, 0.99485266, -0.00327717, -0.00525339, 0.10114272, -0.03554215, 0.86440068, -0.76215422, 87.59300232, 1211.47338867, 39.43000031, 0.00000000
1, 3.3699, 337, 0.02110780, -0.84147269, -0.25366360, 5.98412180, -2.85566401, -11.80747318, 13.50256634, -64.43137360, 47.74208069, 0.37127906, 0.74636912, -11.66184044, 0.99479765, -0.00388488, -0.00615036, 0.10161147, -0.00883335, 0.83538806, -0.74624240, 87.59300232, 1211.47338867, 39.43000031, 0.00000000
1, 3.3799, 338, -0.00089743, -0.82029927, -0.26369038, 6.43247938, -5.83659744, -15.07076645, 13.39287472, -63.81566238, 47.89433289, 0.43324301, 0.88159776, -11.75113201, 0.99470711, -0.00454832, -0.00726582, 0.10239348, 0.01536648, 0.81314170, -0.73617905, 87.59300232, 1211.47338867, 39.43000031, 0.00000000
1, 3.3899, 339, -0.01409451, -0.80287617, -0.26534036, 7.28582191, -9.37417316, -18.73372459, 13.17348671, -63.46382904, 47.70401001, 0.50228745, 1.04543054, -11.88259315, 0.99457335, -0.00530385, -0.00862019, 0.10354388, 0.03122361, 0.79457557, -0.73447818, 87.59300232, 1211.47338867, 39.43000031, 0.00000000
1, 3.3999, 340, -0.01803684, -0.78641474, -0.26898837, 7.48198700, -12.18135357, -23.31097031, 14.59950256, -64.21147156, 47.76111221, 0.55992550, 1.24706161, -12.08551311, 0.99436736, -0.00600440, -0.01030750, 0.10531595, 0.03843266, 0.77695239, -0.73075825, 87.59300232, 1211.47338867, 39.43000031, 0.00000000
1, 3.4099, 341, -0.01226916, -0.78998101, -0.24187471, 8.69382477, -15.14043140, -28.61522484, 14.59950256, -64.21147156, 47.76111221, 0.63936204, 1.49608147, -12.29350376, 0.99414295, -0.00694480, -0.01238277, 0.10713699, 0.03668552, 0.77934420, -0.75776976, 87.59300232, 1211.47338867, 39.43000031, 0.00000000
1, 3.4199, 342, -0.02136627, -0.84327406, -0.23060259, 9.10142612, -16.21660042, -34.01805878, 14.19729233, -63.41984940, 47.78014374, 0.72097605, 1.79609001, -12.52276993, 0.99388218, -0.00796271, -0.01489328, 0.10914683, 0.05067760, 0.83123869, -0.76889408, 87.59300232, 1211.47338867, 39.43000031, 0.00000000
1, 3.4299, 343, -0.00606794, -0.99060661, -0.17330863, 9.39680004, -17.37215614, -37.75228119, 14.30698395, -63.77168274, 47.78014374, 0.80341059, 2.13066673, -12.77054691, 0.99358594, -0.00903401, -0.01769712, 0.11132106, 0.04103317, 0.97711599, -0.82598740, 87.59300232, 1211.47338867, 39.43000031, 0.00000000
1, 3.4399, 344, 0.02120006, -1.13439679, -0.08533624, 9.48049831, -17.30915070, -37.36448669, 14.19729233, -62.01251602, 47.70401001, 0.88532662, 2.46193075, -13.01651669, 0.99327779, -0.01010921, -0.02046816, 0.11348175, 0.01962025, 1.11946642, -0.91371733, 87.59300232, 1211.47338867, 39.43000031, 0.00000000
1, 3.4499, 345, 0.05136362, -1.18658352, -0.07098128, 8.37741184, -16.36890984, -33.43896103, 14.67262936, -62.01251602, 47.11402512, 0.96091479, 2.75828195, -13.27717876, 0.99294925, -0.01110916, -0.02293688, 0.11576906, -0.00509647, 1.17038512, -0.92781544, 87.59300232, 1211.47338867, 39.43000031, 0.00000000
1, 3.4599, 346, 0.05912565, -1.10837042, -0.03698278, 10.24337578, -15.07495499, -26.61466026, 14.67262936, -62.01251602, 47.11402512, 1.05075383, 2.98927689, -13.47918415, 0.99268222, -0.01216390, -0.02482634, 0.11754963, -0.00841099, 1.09067583, -0.96157295, 87.59300232, 1211.47338867, 39.43000031, 0.00000000
1, 3.4699, 347, 0.02901350, -0.95607710, -0.06831134, 14.50185776, -14.49508762, -21.16622543, 15.07484055, -60.29732513, 46.98080063, 1.18350232, 3.16838169, -13.66489601, 0.99243200, -0.01353930, -0.02621983, 0.11919793, 0.02515395, 0.93640637, -0.93002617, 87.59300232, 1211.47338867, 39.43000031, 0.00000000
1, 3.4799, 348, -0.01019914, -0.96292585, -0.06275813, 26.09685707, -15.42870998, -16.21151543, 15.25766277, -61.48476028, 47.53272629, 1.43170416, 3.29770207, -13.85105419, 0.99217188, -0.01586661, -0.02705587, 0.12087663, 0.06694554, 0.93977392, -0.93536103, 87.59300232, 1211.47338867, 39.43000031, 0.00000000
1, 3.4899, 349, -0.04187170, -1.07813668, -0.00780841, 33.03697968, -14.88560104, -11.44003391, 16.17177200, -61.30884552, 47.60885620, 1.74995041, 3.38213825, -14.02307320, 0.99191868, -0.01875169, -0.02742307, 0.12244904, 0.10036720, 1.04975665, -0.99007446, 87.59300232, 1211.47338867, 39.43000031, 0.00000000
1, 3.4999, 350, -0.08369008, -1.16000128, 0.03200842, 33.05765152, -10.63948822, -6.60468435, 15.98895359, -61.88057327, 47.36144257, 2.08038974, 3.41984916, -14.17811680, 0.99168336, -0.02168895, -0.02736699, 0.12387420, 0.14319685, 1.12594378, -1.02965391, 87.59300232, 1211.47338867, 39.43000031, 0.00000000
1, 3.5099, 351, -0.11494575, -1.18476868, 0.04856595, 30.85853767, -4.26027536, -2.10441923, 15.98895359, -61.88057327, 47.36144257, 2.38543773, 3.43312693, -14.22759819, 0.99156475, -0.02435472, -0.02714154, 0.12437676, 0.17477852, 1.14520347, -1.04598880, 87.59300232, 1211.47338867, 39.43000031, 0.00000000
1, 3.5199, 352, -0.12353143, -1.17619944, 0.05604111, 28.74573708, 1.99803615, 1.42623210, 15.07484055, -60.73711777, 47.49466705, 2.67426848, 3.42263341, -14.20891953, 0.99152344, -0.02683827, -0.02674152, 0.12428136, 0.18333271, 1.13145030, -1.05324686, 87.59300232, 1211.47338867, 39.43000031, 0.00000000
1, 3.5299, 353, -0.07067480, -1.13069975, 0.03026839, 26.63805389, 7.29149532, 5.20025826, 15.62330818, -59.50569916, 47.83723831, 2.94623280, 3.38370419, -14.13143444, 0.99155194, -0.02913202, -0.02612931, 0.12366663, 0.12999685, 1.08112347, -1.02727461, 87.59300232, 1211.47338867, 39.43000031, 0.00000000
1, 3.5399, 354, -0.00778387, -1.08247173, -0.00866713, 28.84272957, 9.68545341, 8.90012932, 14.78232574, -59.32978439, 47.60885620, 3.24226236, 3.31180263, -14.02473068, 0.99160850, -0.03159337, -0.02521693, 0.12279508, 0.06607463, 1.02797842, -0.98814309, 87.59300232, 1211.47338867, 39.43000031, 0.00000000
1, 3.5499, 355, 0.06275377, -1.03907049, -0.00620095, 30.68422127, 6.72508383, 12.45338821, 15.55017757, -60.25334549, 48.06562424, 3.56191778, 3.20255041, -13.97611332, 0.99159902, -0.03423375, -0.02394328, 0.12241815, -0.00615075, 0.97919959, -0.99039769, 87.59300232, 1211.47338867, 39.43000031, 0.00000000
1, 3.5599, 356, 0.11300056, -1.01132095, 0.00940798, 35.61088943, 5.78383160, 14.66854858, 15.65986919, -60.42926025, 48.08465195, 3.92315817, 3.06659389, -13.90095329, 0.99160337, -0.03720171, -0.02240502, 0.12180631, -0.05859353, 0.94541436, -1.00574756, 87.59300232, 1211.47338867, 39.43000031, 0.00000000
1, 3.5699, 357, 0.12533672, -0.97196549, 0.02520909, 34.84341431, 4.30833530, 15.34300900, 15.65986919, -60.42926025, 48.08465195, 4.27564669, 2.92134452, -13.84021473, 0.99158734, -0.04008873, -0.02079442, 0.12130618, -0.07341170, 0.89971292, -1.02124119, 87.59300232, 1211.47338867, 39.43000031, 0.00000000
1, 3.5799, 358, 0.10217956, -0.91103840, 0.02597755, 33.56254578, 3.06568432, 14.10789871, 14.85545158, -61.13293076, 48.29400635, 4.61426878, 2.78622174, -13.79420567, 0.99154794, -0.04287024, -0.01928367, 0.12092541, -0.05272081, 0.83290887, -1.02169156, 87.59300232, 1211.47338867, 39.43000031, 0.00000000
1, 3.5899, 359, 0.07474134, -0.87337989, 0.03105540, 32.38469315, 0.02650714, 10.47921181, 14.92858315, -60.47323990, 48.38916779, 4.93884993, 2.68274856, -13.78385258, 0.99145949, -0.04556962, -0.01804972, 0.12085395, -0.02729280, 0.78946841, -1.02639699, 87.59300232, 1211.47338867, 39.43000031, 0.00000000
1, 3.5999, 360, 0.05454962, -0.85880536, 0.04927734, 33.01255798, -3.13979530, 6.03372526, 15.07484055, -59.94548798, 48.31304169, 5.28086758, 2.62163711, -13.84676266, 0.99126780, -0.04847465, -0.01713352, 0.12142859, -0.00847862, 0.76917803, -1.04418516, 87.59300232, 1211.47338867, 39.43000031, 0.00000000
1, 3.6099, 361, 0.04630347, -0.87307656, 0.10283742, 31.74130249, -3.39648819, 2.20014691, 15.33078861, -59.06590652, 48.08465195, 5.59632444, 2.59602165, -13.88162613, 0.99109989, -0.05118169, -0.01656199, 0.12176661, -0.00089005, 0.77774036, -1.09724486, 87.59300232, 1211.47338867, 39.43000031, 0.00000000
1, 3.6199, 362, 0.02956013, -0.87345016, 0.10720559, 29.36303139, -2.67177320, -1.31057966, 15.33078861, -59.06590652, 48.08465195, 5.88814545, 2.60628581, -13.91323566, 0.99093020, -0.05372068, -0.01632581, 0.12208608, 0.01580325, 0.77284777, -1.10109663, 87.59300232, 1211.47338867, 39.43000031, 0.00000000
1, 3.6299, 363, 0.02079145, -0.90779060, 0.16480060, 29.46880150, -3.91024160, -4.25493956, 15.07484055, -59.50569916, 48.46529388, 6.18007278, 2.64459252, -13.96040249, 0.99072999, -0.05629168, -0.01632288, 0.12255204, 0.02506602, 0.80205816, -1.15813625, 87.59300232, 1211.47338867, 39.43000031, 0.00000000
1, 3.6399, 364, 0.00195901, -0.89880633, 0.17912048, 22.62372780, -1.58310640, -6.08352709, 15.69643497, -59.85753250, 48.69367981, 6.40477753, 2.70367599, -13.98539829, 0.99057543, -0.05829980, -0.01658074, 0.12282699, 0.04480196, 0.78882551, -1.17195296, 87.59300232, 1211.47338867, 39.43000031, 0.00000000
1, 3.6499, 365, -0.01699143, -0.90678847, 0.18054853, 20.81697464, -1.18972087, -7.93302870, 15.47705078, -60.16538239, 48.78883743, 6.64570713, 2.77380848, -14.04318810, 0.99036980, -0.06046442, -0.01689834, 0.12339449, 0.06495158, 0.79295468, -1.17288935, 87.59300232, 1211.47338867, 39.43000031, 0.00000000
1, 3.6599, 366, -0.02747723, -0.94559628, 0.23363134, 17.03536797, -2.24991965, -9.98283195, 15.47705078, -59.72559738, 48.96012878, 6.81383133, 2.87115073, -14.07757759, 0.99021602, -0.06202504, -0.01754018, 0.12376384, 0.07690533, 0.82808727, -1.22547197, 87.59300232, 1211.47338867, 39.43000031, 0.00000000
1, 3.6699, 367, -0.02069674, -0.95605612, 0.25996819, 9.08185863, -0.67308742, -11.57770348, 15.47705078, -59.72559738, 48.96012878, 6.90329504, 2.98586202, -14.09663582, 0.99011397, -0.06292205, -0.01842465, 0.12399885, 0.07201962, 0.83648711, -1.25146639, 87.59300232, 1211.47338867, 39.43000031, 0.00000000
1, 3.6799, 368, 0.00672262, -0.95110542, 0.26544151, 2.43979931, -0.05399097, -12.73969078, 15.95238781, -58.27427673, 48.65561295, 6.92664146, 3.11264920, -14.10974407, 0.99004960, -0.06325971, -0.01948804, 0.12417856, 0.04672956, 0.83077842, -1.25673556, 87.59300232, 1211.47338867, 39.43000031, 0.00000000
1, 3.6899, 369, 0.02465849, -0.95362830, 0.26814234, -1.92492032, -0.09314949, -13.48302460, 16.24490356, -59.72559738, 48.75077820, 6.90626097, 3.24674106, -14.12342358, 0.99000514, -0.06322754, -0.02066158, 0.12435921, 0.03109794, 0.83336687, -1.25931740, 87.59300232, 1211.47338867, 39.43000031, 0.00000000
1, 3.6999, 370, 0.04204588, -0.95132899, 0.29364040, -7.80291367, -0.63787103, -13.40617847, 16.35459518, -58.40621948, 48.84593582, 6.89076185, 3.37952137, -14.17780209, 0.98991287, -0.06324413, -0.02179601, 0.12489116, 0.01603884, 0.83176982, -1.28476667, 87.59300232, 1211.47338867, 39.43000031, 0.00000000
1, 3.7099, 371, 0.05353764, -0.95126760, 0.28872034, -12.78416824, 0.39862570, -13.05273438, 15.80613136, -58.49417496, 48.40819931, 6.76221514, 3.50962853, -14.18506432, 0.98993313, -0.06227290, -0.02305665, 0.12499158, 0.00683669, 0.83283788, -1.27984524, 87.59300232, 1211.47338867, 39.43000031, 0.00000000
1, 3.7199, 372, 0.04529133, -0.97528887, 0.29851934, -17.86646271, 0.66183043, -12.68008518, 15.80613136, -58.49417496, 48.40819931, 6.58305597, 3.63619924, -14.18907928, 0.98998296, -0.06086008, -0.02434390, 0.12504871, 0.01730339, 0.85963887, -1.28983450, 87.59300232, 1211.47338867, 39.43000031, 0.00000000
1, 3.7299, 373, 0.01629511, -1.00955391, 0.29263404, -21.23575592, 2.93972468, -12.97345161, 16.17177200, -59.24182510, 48.52238846, 6.37191391, 3.76800537, -14.17072773, 0.99006879, -0.05917148, -0.02572306, 0.12490393, 0.04855439, 0.89741671, -1.28420770, 87.59300232, 1211.47338867, 39.43000031, 0.00000000
1, 3.7399, 374, -0.02119931, -1.03644121, 0.30433908, -25.66944122, 5.04939890, -13.98780727, 16.13521194, -58.14234161, 48.27497482, 6.11803293, 3.91218519, -14.13244343, 0.99018902, -0.05712136, -0.02726520, 0.12457721, 0.08847015, 0.92842412, -1.29620850, 87.59300232, 1211.47338867, 39.43000031, 0.00000000
1, 3.7499, 375, -0.06180785, -1.08767831, 0.31251264, -27.71719742, 8.92635918, -14.90199566, 16.24490356, -57.52663422, 48.12272263, 5.86711216, 4.06294823, -14.08743286, 0.99030703, -0.05510090, -0.02886302, 0.12418941, 0.13170578, 0.98417604, -1.30468166, 87.59300232, 1211.47338867, 39.43000031, 0.00000000
1, 3.7599, 376, -0.08848546, -1.12841487, 0.31528294, -31.79027748, 14.84428024, -14.60691261, 16.31803322, -57.26275635, 47.53272629, 5.56033993, 4.22505379, -13.95294666, 0.99053687, -0.05258430, -0.03065881, 0.12301105, 0.16110119, 1.02976382, -1.30775058, 87.59300232, 1211.47338867, 39.43000031, 0.00000000
1, 3.7699, 377, -0.11198854, -1.17779350, 0.31014928, -36.22295761, 22.32851219, -12.66059399, 16.31803322, -57.26275635, 47.53272629, 5.21627617, 4.37772036, -13.74192238, 0.99085808, -0.04970958, -0.03243998, 0.12114802, 0.18734691, 1.08479071, -1.30295742, 87.59300232, 1211.47338867, 39.43000031, 0.00000000
1, 3.7799, 378, -0.14068684, -1.17227852, 0.23187733, -44.97787857, 33.47705841, -9.12985516, 16.20833778, -56.55909348, 47.97046280, 4.79557800, 4.51113081, -13.41537571, 0.99132431, -0.04611153, -0.03417029, 0.11824657, 0.21849459, 1.08610594, -1.22511220, 87.59300232, 1211.47338867, 39.43000031, 0.00000000
1, 3.7899, 379, -0.18933792, -1.14661312, 0.09337963, -46.06489182, 42.30627060, -4.91547251, 16.13521194, -57.30673599, 48.37014008, 4.37320852, 4.61727715, -12.99613380, 0.99187249, -0.04243371, -0.03568011, 0.11452255, 0.26919603, 1.06796086, -1.08707583, 87.59300232, 1211.47338867, 39.43000031, 0.00000000
1, 3.7999, 380, -0.25040299, -1.12555373, 0.09120213, -42.88846588, 48.02953720, 0.29284164, 16.61054802, -57.96642685, 48.92206573, 3.99385977, 4.67089081, -12.53853416, 0.99243587, -0.03905600, -0.03667956, 0.11045563, 0.33162025, 1.05372167, -1.08530498, 87.59300232, 1211.47338867, 39.43000031, 0.00000000
1, 3.8099, 381, -0.28349060, -1.08903134, 0.04214997, -35.04656601, 57.85641098, 6.53996038, 17.19558144, -58.18632126, 48.48432922, 3.69845319, 4.69249916, -11.95052528, 0.99307817, -0.03632667, -0.03733829, 0.10527149, 0.36523044, 1.02296460, -1.03661060, 87.59300232, 1211.47338867, 39.43000031, 0.00000000
1, 3.8199, 382, -0.23956758, -1.11663210, 0.07061575, -24.96029854, 62.52785492, 13.26948833, 16.68367958, -57.65857315, 49.13142014, 3.50907922, 4.65735340, -11.30715752, 0.99372518, -0.03444451, -0.03740151, 0.09962399, 0.32107282, 1.05456758, -1.06535399, 87.59300232, 1211.47338867, 39.43000031, 0.00000000
1, 3.8299, 383, -0.18138118, -1.24988627, 0.15712450, -17.81167221, 69.23566437, 21.05278015, 16.68367958, -57.65857315, 49.13142014, 3.39768004, 4.55744839, -10.58597279, 0.99440259, -0.03316251, -0.03684116, 0.09330893, 0.26158017, 1.19011569, -1.15210938, 87.59300232, 1211.47338867, 39.43000031, 0.00000000
1, 3.8399, 384, -0.10179068, -1.45863509, 0.19945002, -13.20768166, 75.76940918, 28.82262039, 16.39115906, -56.82296371, 49.26464081, 3.33759570, 4.39218855, -9.78833961, 0.99510479, -0.03226228, -0.03568105, 0.08632857, 0.17954412, 1.40019011, -1.19470763, 87.59300232, 1211.47338867, 39.43000031, 0.00000000
