SensorId, TimeStamp (s), FrameNumber, AccX (g), AccY (g), AccZ (g), GyroX (deg/s), GyroY (deg/s), GyroZ (deg/s), MagX (uT), MagY (uT), MagZ (uT), EulerX (deg), EulerY (deg), EulerZ (deg), QuatW, QuatX, QuatY, QuatZ, LinAccX (g), LinAccY (g), LinAccZ (g), Pressure (kPa), Altitude (m), Temperature (degC), HeaveMotion (m)
1, 0.0000, 0, 0.00536598, -0.98482895, -0.21477203, -0.68788165, -0.07737020, -0.09016073, 11.71090508, -66.36645508, 49.05529022, -0.04789880, -0.08385009, -2.67657161, 0.99972695, 0.00043497, 0.00072177, 0.02335566, -0.00683202, 0.98561990, -0.78522658, 87.60200500, 1210.63012695, 39.36000061, 0.00000000
1, 0.0100, 1, 0.00380247, -0.98714727, -0.21222118, -0.72766268, 0.05641856, 0.10613507, 11.93029308, -65.35493469, 48.76980972, -0.04442026, -0.09913154, -2.75005484, 0.99971163, 0.00040829, 0.00085553, 0.02399677, -0.00533780, 0.98801959, -0.78777730, 87.59900665, 1210.91101074, 39.34000015, 0.00000000
1, 0.0200, 2, 0.00478324, -0.98822236, -0.21274124, -0.78270745, 0.19321866, 0.10917956, 11.34525871, -64.38739014, 48.88399887, -0.05223780, -0.09977979, -2.74782372, 0.99971211, 0.00047661, 0.00085956, 0.02397737, -0.00651689, 0.98908174, -0.78725690, 87.59900665, 1210.91101074, 39.34000015, 0.00000000
1, 0.0300, 3, 0.00493331, -0.98892421, -0.21452919, -0.94266915, 0.08960897, 0.07233414, 11.34525871, -64.38739014, 48.88399887, -0.06165074, -0.10028967, -2.74670219, 0.99971223, 0.00055883, 0.00086205, 0.02396765, -0.00668098, 0.98993629, -0.78546876, 87.59900665, 1210.91101074, 39.34000015, 0.00000000
1, 0.0400, 4, 0.00770637, -0.98698604, -0.21303891, -0.83729964, 0.22652905, 0.14520353, 11.82060146, -66.23451233, 49.22657394, -0.07000248, -0.10121742, -2.74408102, 0.99971271, 0.00063186, 0.00086841, 0.02394485, -0.00946498, 0.98815465, -0.78695887, 87.59900665, 1210.91101074, 39.34000015, 0.00000000
1, 0.0500, 5, 0.00998756, -0.98586994, -0.21405211, -0.90791589, 0.15792833, 0.10882075, 12.33250427, -66.27849579, 49.43593216, -0.07906739, -0.10193868, -2.74219775, 0.99971312, 0.00071108, 0.00087282, 0.02392850, -0.01176265, 0.98718828, -0.78594542, 87.59900665, 1210.91101074, 39.34000015, 0.00000000
1, 0.0600, 6, 0.00939224, -0.98542184, -0.21402462, -1.10413957, 0.07090347, 0.09001328, 12.14968109, -65.75074005, 49.15044403, -0.08476666, -0.09966427, -2.81400418, 0.99969786, 0.00076086, 0.00085131, 0.02455497, -0.01116210, 0.98689365, -0.78597271, 87.59900665, 1210.91101074, 39.34000015, 0.00000000
1, 0.0700, 7, 0.01031069, -0.98422909, -0.21142149, -1.16079557, 0.22313705, 0.19885699, 12.29593849, -65.53085327, 48.63658524, -0.09634817, -0.10111738, -2.81125259, 0.99969834, 0.00086219, 0.00086152, 0.02453106, -0.01207287, 0.98583031, -0.78857571, 87.59900665, 1210.91101074, 39.34000015, 0.00000000
1, 0.0800, 8, 0.00873513, -0.98424762, -0.21171576, -1.33990645, 0.36067170, 0.09682667, 12.29593849, -65.53085327, 48.63658524, -0.10970961, -0.10128032, -2.80737758, 0.99969912, 0.00097876, 0.00086012, 0.02449736, -0.01050369, 0.98607653, -0.78828102, 87.59900665, 1210.91101074, 39.34000015, 0.00000000
1, 0.0900, 9, 0.00893719, -0.98430806, -0.21352932, -1.23009670, 0.22543982, 0.02333440, 11.74746990, -65.61880493, 48.82690430, -0.12199374, -0.10102076, -2.80499649, 0.99969947, 0.00108585, 0.00085525, 0.02447668, -0.01070158, 0.98635602, -0.78646708, 87.59900665, 1210.91101074, 39.34000015, 0.00000000
1, 0.1000, 10, 0.00894069, -0.98499197, -0.21267267, -1.33914113, 0.22287638, 0.12908401, 12.51532650, -65.44289398, 49.22657394, -0.13536553, -0.10179571, -2.80239511, 0.99969995, 0.00120266, 0.00085918, 0.02445409, -0.01071320, 0.98726541, -0.78732318, 87.59900665, 1210.91101074, 39.34000015, 0.00000000
1, 0.1100, 11, 0.01055255, -0.98681962, -0.21322200, -0.98291850, 0.27485606, 0.26971328, 12.07655048, -66.10257721, 49.32173538, -0.13593689, -0.09736994, -2.87168598, 0.99968493, 0.00120719, 0.00081972, 0.02505854, -0.01232058, 0.98925185, -0.78677350, 87.59900665, 1210.91101074, 39.34000015, 0.00000000
1, 0.1200, 12, 0.01389535, -0.98497462, -0.21304919, -0.99894238, 0.17294492, 0.19730656, 12.62501812, -67.59787750, 49.15044403, -0.14591382, -0.09892535, -2.86944795, 0.99968529, 0.00129455, 0.00083113, 0.02503910, -0.01561390, 0.98745018, -0.78694630, 87.59900665, 1210.91101074, 39.34000015, 0.00000000
1, 0.1300, 13, 0.01410595, -0.98545837, -0.21508108, -1.05093193, 0.00128169, 0.17627829, 12.62501812, -67.59787750, 49.15044403, -0.15642081, -0.10064333, -2.86894560, 0.99968529, 0.00138659, 0.00084383, 0.02503482, -0.01584773, 0.98812270, -0.78491390, 87.59900665, 1210.91101074, 39.34000015, 0.00000000
1, 0.1400, 14, 0.01297109, -0.98488659, -0.21370479, -1.01368403, 0.03787445, 0.05388546, 12.22280693, -64.95912170, 48.99819565, -0.16655692, -0.10108698, -2.86833096, 0.99968529, 0.00147511, 0.00084549, 0.02502954, -0.01473755, 0.98772424, -0.78628963, 87.59900665, 1210.91101074, 39.34000015, 0.00000000
1, 0.1500, 15, 0.01077051, -0.98448640, -0.21406440, -0.76074147, -0.09455504, 0.04181296, 12.58845234, -67.72981262, 48.97916031, -0.17417365, -0.10170091, -2.86907244, 0.99968505, 0.00154169, 0.00084918, 0.02503607, -0.01254232, 0.98748893, -0.78592956, 87.59900665, 1210.91101074, 39.34000015, 0.00000000
1, 0.1600, 16, 0.00852143, -0.98446512, -0.21165811, -0.36401749, -0.20813313, -0.00545981, 12.77127552, -67.02614594, 49.32173538, -0.15601516, -0.10797591, -2.94421196, 0.99966854, 0.00138525, 0.00090698, 0.02569151, -0.01032888, 0.98744667, -0.78833580, 87.59900665, 1210.91101074, 39.34000015, 0.00000000
1, 0.1700, 17, 0.00801784, -0.98596841, -0.21152054, -0.36329010, -0.20727348, -0.05817889, 12.95409870, -67.02614594, 49.22657394, -0.15967192, -0.10785773, -2.94632006, 0.99966800, 0.00141714, 0.00090510, 0.02570993, -0.00990010, 0.98873520, -0.78847384, 87.59900665, 1210.91101074, 39.34000015, 0.00000000
1, 0.1800, 18, 0.00800756, -0.98551697, -0.21114820, -0.47205958, -0.10548753, -0.03812786, 12.95409870, -67.02614594, 49.22657394, -0.16439687, -0.10772296, -2.94738889, 0.99966770, 0.00145833, 0.00090285, 0.02571929, -0.00988706, 0.98834908, -0.78884602, 87.59900665, 1210.91101074, 39.34000015, 0.00000000
1, 0.1900, 19, 0.00717474, -0.98618835, -0.21386974, -0.50962031, -0.10777476, 0.08498715, 12.51532650, -66.27849579, 48.75077820, -0.16950908, -0.10879081, -2.94818830, 0.99966753, 0.00150318, 0.00091101, 0.02572631, -0.00906880, 0.98911417, -0.78612423, 87.59900665, 1210.91101074, 39.34000015, 0.00000000
1, 0.2000, 20, 0.00663552, -0.98379940, -0.21312006, -0.54473954, -0.05516507, -0.00169089, 12.25937271, -66.41043091, 49.34076691, -0.17496917, -0.10889918, -2.94866872, 0.99966729, 0.00155084, 0.00091072, 0.02573055, -0.00852801, 0.98682821, -0.78687358, 87.59900665, 1210.91101074, 39.34000015, 0.00000000
1, 0.2100, 21, 0.00606681, -0.98367274, -0.21198691, -0.45638058, -0.07333370, 0.10312664, 13.02722931, -66.10257721, 49.01722336, -0.15412231, -0.11962938, -3.02306914, 0.99965060, 0.00137204, 0.00100812, 0.02637956, -0.00802232, 0.98666114, -0.78800666, 87.59900665, 1210.91101074, 39.34000015, 0.00000000
1, 0.2200, 22, 0.00614664, -0.98250324, -0.21262380, -0.49372002, 0.11535197, 0.08962949, 12.51532650, -65.88268280, 48.78883743, -0.15905845, -0.12024484, -3.02169371, 0.99965090, 0.00141523, 0.00101237, 0.02636760, -0.00824413, 0.98524976, -0.78737026, 87.59900665, 1210.91101074, 39.34000015, 0.00000000
1, 0.2300, 23, 0.00773394, -0.98425156, -0.21043445, -0.62178987, 0.23271728, 0.19795871, 12.51532650, -65.88268280, 48.78883743, -0.16524144, -0.12167230, -3.01892471, 0.99965143, 0.00146947, 0.00102344, 0.02634352, -0.00984914, 0.98709190, -0.78955930, 87.59900665, 1210.91101074, 39.34000015, 0.00000000
1, 0.2400, 24, 0.00749914, -0.98485893, -0.21081059, -0.63920403, 0.33721253, 0.09473899, 12.36906433, -65.61880493, 48.73174286, -0.17159851, -0.12185676, -3.01535153, 0.99965215, 0.00152494, 0.00102363, 0.02631241, -0.00962207, 0.98781729, -0.78918278, 87.59900665, 1210.91101074, 39.34000015, 0.00000000
1, 0.2500, 25, 0.00804348, -0.98468620, -0.20963420, -0.49966863, 0.29123503, 0.10364521, 12.73470974, -66.05860138, 49.03625488, -0.17656505, -0.12222764, -3.01222682, 0.99965274, 0.00156832, 0.00102577, 0.02628520, -0.01017267, 0.98774016, -0.79035890, 87.59900665, 1210.91101074, 39.34000015, 0.00000000
1, 0.2600, 26, 0.00737225, -0.98527467, -0.20967652, -0.45953307, 0.25211856, 0.20391269, 12.88097191, -66.41043091, 49.22657394, -0.15883626, -0.13315336, -3.08253145, 0.99963653, 0.00141686, 0.00112428, 0.02689847, -0.00956349, 0.98830569, -0.79031646, 87.59900665, 1210.91101074, 39.34000015, 0.00000000
1, 0.2700, 27, 0.00810857, -0.98634762, -0.21056844, -0.53290820, 0.40564421, 0.22494321, 13.31974411, -65.61880493, 48.96012878, -0.16412252, -0.13445853, -3.07803774, 0.99963760, 0.00146323, 0.00113448, 0.02685934, -0.01044564, 0.98917973, -0.78942478, 87.59900665, 1210.91101074, 39.34000015, 0.00000000
1, 0.2800, 28, 0.00836337, -0.98547798, -0.20939022, -0.51525140, 0.30143550, 0.31058979, 12.44219589, -66.01461792, 49.05529022, -0.16924562, -0.13683803, -3.07435274, 0.99963832, 0.00150845, 0.00115409, 0.02682728, -0.01073337, 0.98839951, -0.79060268, 87.59900665, 1210.91101074, 39.34000015, 0.00000000
1, 0.2900, 29, 0.01086021, -0.98549521, -0.21182457, -0.38756421, 0.25296783, 0.18613203, 12.44219589, -66.01461792, 49.05529022, -0.17309467, -0.13809592, -3.07143927, 0.99963892, 0.00154229, 0.00116420, 0.02680191, -0.01326100, 0.98849112, -0.78816807, 87.59900665, 1210.91101074, 39.34000015, 0.00000000
1, 0.3000, 30, 0.01304073, -0.98499167, -0.21078177, -0.40494081, 0.21880813, 0.16788866, 12.47876072, -65.04708099, 48.82690430, -0.17712431, -0.13925759, -3.06888008, 0.99963945, 0.00157769, 0.00117342, 0.02677965, -0.01546160, 0.98805475, -0.78921062, 87.59900665, 1210.91101074, 39.34000015, 0.00000000
1, 0.3100, 31, 0.01147986, -0.98284340, -0.21318336, -0.22545263, 0.25509366, 0.13294572, 12.14968109, -67.37797546, 48.80787277, -0.15122710, -0.12647299, -3.13906884, 0.99962330, 0.00134944, 0.00106712, 0.02739152, -0.01385828, 0.98583353, -0.78680933, 87.59900665, 1210.91101074, 39.34000015, 0.00000000
1, 0.3200, 32, 0.01119530, -0.98257643, -0.21296918, -0.25990930, 0.10043731, 0.12979972, 12.84440613, -66.14656067, 48.78883743, -0.15381134, -0.12752368, -3.13777351, 0.99962366, 0.00137222, 0.00107569, 0.02738026, -0.01341813, 0.98524129, -0.78702486, 87.59900665, 1210.91101074, 39.34000015, 0.00000000
1, 0.3300, 33, 0.00939409, -0.98346746, -0.21422596, -0.08090629, 0.13614970, 0.13000280, 12.58845234, -65.09105682, 49.45495987, -0.15460806, -0.12849659, -3.13615513, 0.99962401, 0.00137939, 0.00108400, 0.02736617, -0.01162758, 0.98616171, -0.78576791, 87.59900665, 1210.91101074, 39.34000015, 0.00000000
1, 0.3400, 34, 0.00772951, -0.98505437, -0.21570165, 0.00736662, 0.10054176, 0.25203225, 12.58845234, -65.09105682, 49.45495987, -0.15452817, -0.13073140, -3.13463902, 0.99962437, 0.00137921, 0.00110353, 0.02735296, -0.00999363, 0.98775256, -0.78429216, 87.59900665, 1210.91101074, 39.34000015, 0.00000000
1, 0.3500, 35, 0.00713417, -0.98432380, -0.21619521, 0.02521200, 0.08324312, 0.26919225, 12.91753292, -66.93818665, 49.01722336, -0.15424877, -0.13317847, -3.13323212, 0.99962467, 0.00137734, 0.00112496, 0.02734071, -0.00944291, 0.98701811, -0.78379846, 87.59900665, 1210.91101074, 39.34000015, 0.00000000
1, 0.3600, 36, 0.00639141, -0.98339337, -0.21791968, 0.21608187, 0.07640124, 0.08828732, 12.18624687, -65.00309753, 48.65561295, -0.14160052, -0.13837042, -3.20610142, 0.99960709, 0.00126899, 0.00117247, 0.02797630, -0.00874432, 0.98601228, -0.78207415, 87.59900665, 1210.91101074, 39.34000015, 0.00000000
1, 0.3700, 37, 0.00658775, -0.98081845, -0.21666834, 0.32216260, 0.16214958, 0.14250040, 11.93029308, -65.70676422, 48.61755371, -0.13836296, -0.13940682, -3.20423818, 0.99960756, 0.00124098, 0.00118232, 0.02796003, -0.00901309, 0.98324996, -0.78332579, 87.59900665, 1210.91101074, 39.34000015, 0.00000000
1, 0.3800, 38, 0.00648621, -0.98187685, -0.21732317, 0.35620439, 0.28164068, 0.19764329, 12.47876072, -66.67430878, 49.01722336, -0.13477984, -0.14072420, -3.20110846, 0.99960834, 0.00121002, 0.00119472, 0.02793270, -0.00893450, 0.98425120, -0.78267097, 87.59900665, 1210.91101074, 39.34000015, 0.00000000
1, 0.3900, 39, 0.00503486, -0.98164165, -0.21813732, 0.23037082, 0.31496149, 0.19872884, 12.47876072, -66.67430878, 49.01722336, -0.13243523, -0.14197493, -3.19763875, 0.99960929, 0.00118983, 0.00120624, 0.02790243, -0.00750420, 0.98397195, -0.78185701, 87.59900665, 1210.91101074, 39.34000015, 0.00000000
1, 0.4000, 40, 0.00651252, -0.98474616, -0.21509737, 0.33563781, 0.38241085, 0.32287294, 12.00342369, -66.01461792, 49.15044403, -0.12903665, -0.14429326, -3.19323325, 0.99961030, 0.00116070, 0.00122733, 0.02786398, -0.00901317, 0.98702085, -0.78489697, 87.59900665, 1210.91101074, 39.34000015, 0.00000000
1, 0.4100, 41, 0.01031802, -0.98893291, -0.21083976, 0.29926813, 0.57224256, 0.23908368, 12.03998470, -65.97064209, 49.26464081, -0.09745340, -0.14264521, -3.26181102, 0.99959373, 0.00088552, 0.00122010, 0.02846184, -0.01283736, 0.99102294, -0.78915489, 87.59900665, 1210.91101074, 39.34000015, 0.00000000
1, 0.4200, 42, 0.01170479, -0.98999017, -0.20818612, 0.24464354, 0.50149018, 0.34323314, 12.14968109, -65.48686981, 49.11238480, -0.09496088, -0.14491616, -3.25621581, 0.99959517, 0.00086429, 0.00124058, 0.02841303, -0.01421913, 0.99165761, -0.79180932, 87.59900665, 1210.91101074, 39.34000015, 0.00000000
1, 0.4300, 43, 0.01286723, -0.98846024, -0.20942396, -0.00511604, 0.46636128, 0.27294561, 11.52808189, -64.87116241, 48.76980972, -0.09497099, -0.14656989, -3.25106907, 0.99959642, 0.00086473, 0.00125504, 0.02836815, -0.01541186, 0.99011922, -0.79057139, 87.59900665, 1210.91101074, 39.34000015, 0.00000000
1, 0.4400, 44, 0.01169853, -0.98584932, -0.20784882, -0.21909863, 0.41407439, 0.21976618, 11.52808189, -64.87116241, 48.76980972, -0.09713258, -0.14781737, -3.24652863, 0.99959755, 0.00088384, 0.00126542, 0.02832857, -0.01427775, 0.98753142, -0.79214644, 87.59900665, 1210.91101074, 39.34000015, 0.00000000
1, 0.4500, 45, 0.01153176, -0.98543984, -0.21083224, -0.03851654, 0.33029050, 0.18229556, 12.22280693, -64.91514587, 49.05529022, -0.09748381, -0.14888370, -3.24291277, 0.99959838, 0.00088713, 0.00127466, 0.02829704, -0.01412550, 0.98714203, -0.78916293, 87.59900665, 1210.91101074, 39.34000015, 0.00000000
1, 0.4600, 46, 0.01074826, -0.98472154, -0.21465093, 0.05168363, 0.00917749, -0.04514736, 12.36906433, -67.33399963, 49.47399139, -0.06626953, -0.13483357, -3.31667113, 0.99958032, 0.00061212, 0.00115942, 0.02894002, -0.01328402, 0.98628926, -0.78534460, 87.59900665, 1210.91101074, 39.34000015, 0.00000000
1, 0.4700, 47, 0.01025229, -0.98404002, -0.21582066, 0.30004328, 0.13743655, -0.06394783, 12.55188751, -65.66278839, 49.15044403, -0.06325787, -0.13390689, -3.31550336, 0.99958062, 0.00058560, 0.00115210, 0.02892980, -0.01259322, 0.98516262, -0.78417593, 87.59900665, 1210.91101074, 39.34000015, 0.00000000
1, 0.4800, 48, 0.00741418, -0.98208350, -0.21688376, 0.48208031, 0.05537194, -0.20685661, 12.44219589, -65.31095886, 49.05529022, -0.05843792, -0.13176334, -3.31547260, 0.99958062, 0.00054302, 0.00113462, 0.02892947, -0.00972622, 0.98313540, -0.78311300, 87.59900665, 1210.91101074, 39.34000015, 0.00000000
1, 0.4900, 49, 0.00631569, -0.98200315, -0.21523370, 0.42618924, 0.06981025, -0.06575561, 12.44219589, -65.31095886, 49.05529022, -0.05417280, -0.13097167, -3.31498575, 0.99958092, 0.00050561, 0.00112879, 0.02892518, -0.00860513, 0.98297346, -0.78476322, 87.59900665, 1210.91101074, 39.34000015, 0.00000000
1, 0.5000, 50, 0.00396479, -0.98153424, -0.21624060, 0.37284198, 0.20861623, -0.18572228, 12.29593849, -65.09105682, 49.13142014, -0.05042470, -0.12870750, -3.31338143, 0.99958134, 0.00047233, 0.00110999, 0.02891114, -0.00622698, 0.98244315, -0.78375643, 87.59900665, 1210.91101074, 39.34000015, 0.00000000
1, 0.5100, 51, 0.00245216, -0.98211485, -0.21561514, 0.58588707, 0.36381975, -0.13037626, 12.66158390, -67.07012177, 49.45495987, -0.04345659, -0.13746642, -3.37978077, 0.99956435, 0.00041444, 0.00118791, 0.02949030, -0.00472435, 0.98292720, -0.78438193, 87.59900665, 1210.91101074, 39.34000015, 0.00000000
1, 0.5200, 52, 0.00361855, -0.98381501, -0.21496846, 0.47751641, 0.44873944, -0.12825938, 11.89372730, -66.71829224, 49.11238480, -0.03864916, -0.13523163, -3.37572765, 0.99956536, 0.00037189, 0.00116967, 0.02945489, -0.00599560, 0.98451912, -0.78502846, 87.59900665, 1210.91101074, 39.34000015, 0.00000000
1, 0.5300, 53, 0.00797185, -0.98267031, -0.21586652, 0.36945808, 0.49935368, -0.12686463, 11.96685791, -64.82717896, 49.43593216, -0.03491244, -0.13291611, -3.37117195, 0.99956656, 0.00033865, 0.00115045, 0.02941510, -0.01030681, 0.98330146, -0.78413057, 87.59900665, 1210.91101074, 39.34000015, 0.00000000
1, 0.5400, 54, 0.00912743, -0.98115325, -0.21627377, 0.42179790, 0.49805644, -0.02158219, 11.96685791, -64.82717896, 49.43593216, -0.03065056, -0.13162436, -3.36641073, 0.99956781, 0.00030110, 0.00114029, 0.02937353, -0.01143063, 0.98171920, -0.78372335, 87.59900665, 1210.91101074, 39.34000015, 0.00000000
1, 0.5500, 55, 0.01054680, -0.98299646, -0.21599458, 0.34934393, 0.49663407, 0.03134457, 12.51532650, -64.43137360, 49.43593216, -0.02711623, -0.13085967, -3.36153579, 0.99956906, 0.00027003, 0.00113453, 0.02933097, -0.01283670, 0.98348820, -0.78400272, 87.59900665, 1210.91101074, 39.34000015, 0.00000000
1, 0.5600, 56, 0.00981144, -0.98541528, -0.21601996, 0.13659485, 0.25402993, 0.19086783, 12.44219589, -65.00309753, 48.90303040, -0.01465905, -0.12240676, -3.43225455, 0.99955094, 0.00015986, 0.00106389, 0.02994770, -0.01206675, 0.98582286, -0.78397739, 87.59900665, 1210.91101074, 39.34000015, 0.00000000
1, 0.5700, 57, 0.00963844, -0.98516959, -0.21432781, 0.06860827, 0.32617247, 0.05773406, 11.93029308, -64.56330872, 49.07432175, -0.01393789, -0.12227309, -3.42895794, 0.99955177, 0.00015350, 0.00106292, 0.02991894, -0.01177639, 0.98541284, -0.78566992, 87.59900665, 1210.91101074, 39.34000015, 0.00000000
1, 0.5800, 58, 0.00901448, -0.98531383, -0.21347415, -0.10888629, 0.20555584, 0.00300642, 12.44219589, -65.92666626, 49.34076691, -0.01500720, -0.12185791, -3.42691708, 0.99955237, 0.00016270, 0.00105902, 0.02990115, -0.01114446, 0.98557425, -0.78652358, 87.59900665, 1210.91101074, 39.34000015, 0.00000000
1, 0.5900, 59, 0.00820636, -0.98461062, -0.21437022, -0.03641633, 0.25900969, -0.08398311, 12.03998470, -65.75074005, 49.79753494, -0.01535760, -0.12047477, -3.42458034, 0.99955297, 0.00016538, 0.00104687, 0.02988077, -0.01031542, 0.98487639, -0.78562748, 87.59900665, 1210.91101074, 39.34000015, 0.00000000
1, 0.6000, 60, 0.00980086, -0.98282045, -0.21230924, 0.12406781, 0.22453752, 0.00269271, 12.03998470, -65.75074005, 49.79753494, -0.01409618, -0.12002509, -3.42239475, 0.99955350, 0.00015423, 0.00104328, 0.02986169, -0.01189872, 0.98307276, -0.78768843, 87.59900665, 1210.91101074, 39.34000015, 0.00000000
1, 0.6100, 61, 0.00823381, -0.98235214, -0.21450756, 0.27138942, -0.06450136, -0.09172633, 12.03998470, -66.54237366, 49.22657394, 0.00439972, -0.10877543, -3.49611688, 0.99953425, -0.00000942, 0.00094997, 0.03050458, -0.01027573, 0.98250014, -0.78549039, 87.59900665, 1210.91101074, 39.34000015, 0.00000000
1, 0.6200, 62, 0.00922207, -0.98202735, -0.21486366, 0.50394481, -0.02865344, -0.07410595, 12.00342369, -66.58635712, 49.37883377, 0.00944114, -0.10811047, -3.49660993, 0.99953413, -0.00005357, 0.00094552, 0.03050885, -0.01111229, 0.98189783, -0.78513455, 87.59900665, 1210.91101074, 39.34000015, 0.00000000
1, 0.6300, 63, 0.00789191, -0.98553485, -0.21207266, 0.37851009, -0.01219892, -0.09095452, 12.03998470, -65.83870697, 48.96012878, 0.01321921, -0.10724950, -3.49696946, 0.99953401, -0.00008675, 0.00093901, 0.03051195, -0.00976882, 0.98533159, -0.78792560, 87.59900665, 1210.91101074, 39.34000015, 0.00000000
1, 0.6400, 64, 0.00892071, -0.98774350, -0.21613868, 0.39519653, -0.11755382, 0.06498424, 11.60121250, -67.64184570, 49.22657394, 0.01716917, -0.10814042, -3.49802160, 0.99953365, -0.00012096, 0.00094784, 0.03052109, -0.01080314, 0.98746502, -0.78385949, 87.59900665, 1210.91101074, 39.34000015, 0.00000000
1, 0.6500, 65, 0.00847719, -0.98647761, -0.21364219, 0.32884806, -0.49318516, -0.08333638, 11.60121250, -67.64184570, 49.22657394, 0.02041136, -0.10838482, -3.50305080, 0.99953234, -0.00014913, 0.00095084, 0.03056493, -0.01036385, 0.98614335, -0.78635597, 87.59900665, 1210.91101074, 39.34000015, 0.00000000
1, 0.6600, 66, 0.01063546, -0.98652303, -0.21260358, 0.30362317, -0.35250616, 0.00910053, 12.47876072, -65.00309753, 49.03625488, 0.03080728, -0.09996746, -3.57969236, 0.99951172, -0.00024147, 0.00088035, 0.03123337, -0.01249814, 0.98610419, -0.78739452, 87.59900665, 1210.91101074, 39.34000015, 0.00000000
1, 0.6700, 67, 0.01250608, -0.98819053, -0.20748755, 0.00545398, -0.61325121, -0.04367204, 11.93029308, -66.98216248, 49.39786530, 0.03080168, -0.10086500, -3.58577752, 0.99951005, -0.00024112, 0.00088819, 0.03128645, -0.01426195, 0.98764861, -0.79251075, 87.59900665, 1210.91101074, 39.34000015, 0.00000000
1, 0.6800, 68, 0.01408921, -0.98948085, -0.20929484, -0.08286765, -0.73373747, -0.06351315, 12.58845234, -65.57482910, 49.13142014, 0.02989585, -0.10182735, -3.59307551, 0.99950802, -0.00023290, 0.00089635, 0.03135011, -0.01585795, 0.98894763, -0.79070348, 87.59900665, 1210.91101074, 39.34000015, 0.00000000
1, 0.6900, 69, 0.01473425, -0.99051595, -0.20680299, -0.27784106, -0.95798457, -0.08520941, 11.89372730, -66.05860138, 49.45495987, 0.02703481, -0.10305060, -3.60256839, 0.99950546, -0.00020754, 0.00090626, 0.03143293, -0.01652756, 0.99002033, -0.79319531, 87.59900665, 1210.91101074, 39.34000015, 0.00000000
1, 0.7000, 70, 0.01481639, -0.98931068, -0.20777804, -0.59875047, -1.21838140, -0.05454535, 11.89372730, -66.05860138, 49.45495987, 0.02094283, -0.10513505, -3.61452198, 0.99950224, -0.00015373, 0.00092278, 0.03153724, -0.01663784, 0.98890257, -0.79222023, 87.59900665, 1210.91101074, 39.34000015, 0.00000000
1, 0.7100, 71, 0.01345079, -0.98776436, -0.20655112, -0.91808605, -1.35555720, -0.21465696, 12.11311531, -65.22299194, 49.07432175, 0.02081668, -0.09849622, -3.70038271, 0.99947828, -0.00015381, 0.00086496, 0.03228614, -0.01526150, 0.98746157, -0.79344714, 87.59900665, 1210.91101074, 39.34000015, 0.00000000
1, 0.7200, 72, 0.01312010, -0.98746866, -0.20824488, -0.86179131, -1.62957966, -0.22059019, 12.29593849, -64.69524384, 49.28366852, 0.01204742, -0.09984654, -3.71667385, 0.99947369, -0.00007682, 0.00087428, 0.03242829, -0.01485327, 0.98720104, -0.79175359, 87.59900665, 1210.91101074, 39.34000015, 0.00000000
1, 0.7300, 73, 0.01235136, -0.98791033, -0.20801030, -0.87710392, -1.78266227, -0.31165329, 12.14968109, -65.04708099, 49.18851471, 0.00310488, -0.10064613, -3.73464584, 0.99946856, 0.00000154, 0.00087872, 0.03258511, -0.01409957, 0.98780274, -0.79198813, 87.59900665, 1210.91101074, 39.34000015, 0.00000000
1, 0.7400, 74, 0.01315720, -0.98613352, -0.20780414, -0.75099045, -1.95435131, -0.24533550, 11.96685791, -65.83870697, 49.34076691, -0.00459114, -0.10244910, -3.75417686, 0.99946308, 0.00006933, 0.00089224, 0.03275553, -0.01493558, 0.98615706, -0.79219425, 87.59900665, 1210.91101074, 39.34000015, 0.00000000
1, 0.7500, 75, 0.01266839, -0.98537570, -0.20995785, -0.73214257, -1.86644113, -0.36659312, 11.96685791, -65.83870697, 49.34076691, -0.01208771, -0.10290141, -3.77311730, 0.99945760, 0.00013499, 0.00089402, 0.03292078, -0.01446276, 0.98553485, -0.79004043, 87.59900665, 1210.91101074, 39.34000015, 0.00000000
1, 0.7600, 76, 0.01099677, -0.98471117, -0.21114054, -0.78166956, -2.17389369, -0.47837523, 12.62501812, -66.49839020, 49.32173538, -0.01663624, -0.10002726, -3.86526608, 0.99943084, 0.00017453, 0.00086751, 0.03372452, -0.01277807, 0.98499930, -0.78885782, 87.59900665, 1210.91101074, 39.34000015, 0.00000000
1, 0.7700, 77, 0.01020690, -0.98494655, -0.21244313, -0.71056831, -2.10471988, -0.47713846, 12.69814968, -66.45441437, 49.03625488, -0.02395912, -0.09991393, -3.88677382, 0.99942446, 0.00023853, 0.00086432, 0.03391215, -0.01195035, 0.98532385, -0.78755522, 87.59900665, 1210.91101074, 39.34000015, 0.00000000
1, 0.7800, 78, 0.00718739, -0.98528081, -0.21340157, -0.62226313, -2.03626490, -0.42323458, 12.14968109, -64.78320312, 49.07432175, -0.03037415, -0.10017120, -3.90749288, 0.99941826, 0.00029471, 0.00086461, 0.03409290, -0.00893042, 0.98577243, -0.78659678, 87.59900665, 1210.91101074, 39.34000015, 0.00000000
1, 0.7900, 79, 0.00607608, -0.98412609, -0.21223623, -0.55100560, -1.98424375, -0.42235899, 11.96685791, -64.78320312, 48.90303040, -0.03607757, -0.10033151, -3.92772341, 0.99941218, 0.00034466, 0.00086425, 0.03426939, -0.00783286, 0.98471969, -0.78776211, 87.59900665, 1210.91101074, 39.34000015, 0.00000000
1, 0.8000, 80, 0.00461628, -0.98211288, -0.21171467, -0.42458469, -1.94752073, -0.50986516, 11.96685791, -64.78320312, 48.90303040, -0.04051580, -0.09956174, -3.94778204, 0.99940622, 0.00038328, 0.00085615, 0.03444436, -0.00635707, 0.98279488, -0.78828359, 87.59900665, 1210.91101074, 39.34000015, 0.00000000
1, 0.8100, 81, 0.00552630, -0.98226410, -0.21290578, -0.28278098, -1.79230702, -0.48945761, 12.91753292, -65.88268280, 49.43593216, -0.03884464, -0.09891863, -4.03714275, 0.99937904, 0.00036918, 0.00085075, 0.03522369, -0.00725720, 0.98298675, -0.78709245, 87.59900665, 1210.91101074, 39.34000015, 0.00000000
1, 0.8200, 82, 0.00818422, -0.98034769, -0.21603216, -0.24828652, -1.77630544, -0.40133524, 12.95409870, -65.00309753, 49.26464081, -0.04149847, -0.09883771, -4.05532312, 0.99937344, 0.00039243, 0.00084917, 0.03538227, -0.00990996, 0.98106003, -0.78396606, 87.59900665, 1210.91101074, 39.34000015, 0.00000000
1, 0.8300, 83, 0.00806215, -0.98047185, -0.21600363, 0.00029286, -1.63854659, -0.31130815, 12.62501812, -65.35493469, 48.80787277, -0.04165540, -0.09934147, -4.07197857, 0.99936831, 0.00039408, 0.00085346, 0.03552753, -0.00978846, 0.98120177, -0.78399462, 87.59900665, 1210.91101074, 39.34000015, 0.00000000
1, 0.8400, 84, 0.00693671, -0.98328161, -0.21674372, -0.01918498, -1.41512787, -0.34170809, 12.44219589, -65.31095886, 48.54142380, -0.04198969, -0.09906086, -4.08654976, 0.99936378, 0.00039702, 0.00085085, 0.03565460, -0.00867151, 0.98401129, -0.78325450, 87.59900665, 1210.91101074, 39.34000015, 0.00000000
1, 0.8500, 85, 0.00455446, -0.98457640, -0.21807131, -0.02066120, -1.22616100, -0.35530904, 12.44219589, -65.31095886, 48.54142380, -0.04231768, -0.09823786, -4.09928226, 0.99935973, 0.00039972, 0.00084353, 0.03576565, -0.00627393, 0.98530930, -0.78192699, 87.59900665, 1210.91101074, 39.34000015, 0.00000000
1, 0.8600, 86, 0.00471925, -0.98524565, -0.21801277, -0.29054016, -1.02129197, -0.42048940, 12.44219589, -64.56330872, 48.94110107, -0.05024531, -0.10299052, -4.18186378, 0.99933374, 0.00047097, 0.00088217, 0.03648591, -0.00644307, 0.98603696, -0.78198546, 87.59900665, 1210.91101074, 39.34000015, 0.00000000
1, 0.8700, 87, 0.00193600, -0.98380369, -0.21729438, -0.05968725, -0.74473202, -0.43295971, 12.91753292, -66.19053650, 49.35980225, -0.05092768, -0.10037914, -4.19006205, 0.99933112, 0.00047615, 0.00085914, 0.03655741, -0.00370087, 0.98468673, -0.78270370, 87.59900665, 1210.91101074, 39.34000015, 0.00000000
1, 0.8800, 88, 0.00116216, -0.98645681, -0.21599881, -0.09973181, -0.42054340, -0.33813003, 12.25937271, -65.75074005, 49.16947937, -0.05197422, -0.09798070, -4.19488096, 0.99932957, 0.00048455, 0.00083787, 0.03659943, -0.00288746, 0.98735982, -0.78399926, 87.59900665, 1210.91101074, 39.34000015, 0.00000000
1, 0.8900, 89, 0.00072854, -0.98643261, -0.21600337, -0.10176317, -0.19755739, -0.33343571, 12.25937271, -67.02614594, 49.32173538, -0.05302089, -0.09515280, -4.19752645, 0.99932873, 0.00049279, 0.00081286, 0.03662249, -0.00240683, 0.98734909, -0.78399479, 87.59900665, 1210.91101074, 39.34000015, 0.00000000
1, 0.9000, 90, 0.00121691, -0.98618692, -0.21565783, -0.23032305, 0.16195260, -0.34306240, 12.47876072, -66.58635712, 49.11238480, -0.05530943, -0.09144855, -4.19667864, 0.99932903, 0.00051156, 0.00077983, 0.03661510, -0.00283514, 0.98713726, -0.78434044, 87.59900665, 1210.91101074, 39.34000015, 0.00000000
1, 0.9100, 91, 0.00226502, -0.98646134, -0.21466376, -0.21473542, 0.41938490, -0.33769789, 12.47876072, -66.58635712, 49.11238480, -0.05403732, -0.09834040, -4.26424646, 0.99930722, 0.00050317, 0.00084004, 0.03720436, -0.00386516, 0.98743534, -0.78533453, 87.59900665, 1210.91101074, 39.34000015, 0.00000000
1, 0.9200, 92, 0.00429356, -0.98387855, -0.21416156, -0.25415498, 0.67496240, -0.24431258, 11.93029308, -64.65126801, 48.84593582, -0.05651647, -0.09449159, -4.25816011, 0.99930924, 0.00052349, 0.00080570, 0.03715128, -0.00597115, 0.98484445, -0.78583658, 87.59900665, 1210.91101074, 39.34000015, 0.00000000
1, 0.9300, 93, 0.00771341, -0.98426867, -0.21526544, -0.52319860, 0.70744419, -0.26038480, 11.82060146, -64.87116241, 48.75077820, -0.06169387, -0.09042134, -4.25176334, 0.99931127, 0.00056728, 0.00076856, 0.03709552, -0.00931730, 0.98531067, -0.78473270, 87.59900665, 1210.91101074, 39.34000015, 0.00000000
1, 0.9400, 94, 0.00929032, -0.98446733, -0.21472657, -0.52666360, 0.73802453, -0.03121322, 12.51532650, -64.65126801, 49.15044403, -0.06688359, -0.08852037, -4.24455643, 0.99931359, 0.00061188, 0.00075034, 0.03703269, -0.01085094, 0.98560858, -0.78527153, 87.59900665, 1210.91101074, 39.34000015, 0.00000000
1, 0.9500, 95, 0.01000988, -0.98463035, -0.21533523, -0.49094060, 0.80749005, -0.06501872, 12.44219589, -67.02614594, 49.09334946, -0.07172953, -0.08613855, -4.23676205, 0.99931610, 0.00065332, 0.00072805, 0.03696474, -0.01152832, 0.98585129, -0.78466290, 87.59900665, 1210.91101074, 39.34000015, 0.00000000
1, 0.9600, 96, 0.00897469, -0.98499066, -0.21667218, -0.41909045, 0.68683726, 0.00253811, 12.44219589, -67.02614594, 49.09334946, -0.07025280, -0.08642951, -4.30024910, 0.99929553, 0.00064094, 0.00073071, 0.03751838, -0.01047161, 0.98626381, -0.78332591, 87.59900665, 1210.91101074, 39.34000015, 0.00000000
1, 0.9700, 97, 0.01025494, -0.98359567, -0.21695589, -0.48901159, 0.51503330, -0.01843826, 11.96685791, -64.91514587, 48.82690430, -0.07507955, -0.08513705, -4.29521990, 0.99929714, 0.00068257, 0.00071789, 0.03747454, -0.01175168, 0.98487055, -0.78304219, 87.59900665, 1210.91101074, 39.34000015, 0.00000000
1, 0.9800, 98, 0.00917163, -0.98232532, -0.21929701, -0.32734755, 0.37793112, 0.04849795, 12.33250427, -65.53085327, 49.01722336, -0.07832570, -0.08478928, -4.29138041, 0.99929833, 0.00071074, 0.00071382, 0.03744108, -0.01065448, 0.98367703, -0.78070104, 87.59900665, 1210.91101074, 39.34000015, 0.00000000
1, 0.9900, 99, 0.00960430, -0.98257101, -0.21877098, -0.32564995, 0.37993693, -0.07451329, 12.77127552, -65.53085327, 49.37883377, -0.08154095, -0.08323643, -4.28780746, 0.99929953, 0.00073825, 0.00069925, 0.03740993, -0.01106704, 0.98396814, -0.78122699, 87.59900665, 1210.91101074, 39.34000015, 0.00000000
1, 1.0000, 100, 0.01079636, -0.98264372, -0.21688160, -0.39621237, 0.22471267, -0.05998246, 12.29593849, -66.58635712, 49.09334946, -0.08549474, -0.08215567, -4.28568983, 0.99930018, 0.00077237, 0.00068854, 0.03739148, -0.01223629, 0.98410958, -0.78311628, 87.59900665, 1210.91101074, 39.34000015, 0.00000000
1, 1.0100, 101, 0.01233695, -0.98386222, -0.21745811, -0.36064062, 0.06861327, 0.05967509, 12.29593849, -66.58635712, 49.09334946, -0.08830023, -0.07219129, -4.35562134, 0.99927723, 0.00079395, 0.00060025, 0.03800127, -0.01372891, 0.98539132, -0.78253973, 87.59900665, 1210.91101074, 39.34000015, 0.00000000
1, 1.0200, 102, 0.01480031, -0.98419863, -0.21900281, -0.14072511, -0.28818744, -0.05396901, 11.93029308, -64.25545502, 48.76980972, -0.08974066, -0.07229517, -4.35852194, 0.99927628, 0.00080656, 0.00060066, 0.03802657, -0.01605808, 0.98576134, -0.78099519, 87.59900665, 1210.91101074, 39.34000015, 0.00000000
1, 1.0300, 103, 0.01452768, -0.98079228, -0.21873522, 0.07794018, -0.50776595, -0.16472431, 11.82060146, -63.94759750, 48.44626236, -0.08901406, -0.07178468, -4.36384773, 0.99927443, 0.00080008, 0.00059641, 0.03807300, -0.01578739, 0.98235261, -0.78126281, 87.59900665, 1210.91101074, 39.34000015, 0.00000000
1, 1.0400, 104, 0.01116667, -0.97851890, -0.21712491, 0.26124349, -0.67502123, -0.34458461, 12.33250427, -66.05860138, 49.18851471, -0.08647735, -0.06988323, -4.37120152, 0.99927211, 0.00077737, 0.00058062, 0.03813711, -0.01240041, 0.98004758, -0.78287321, 87.59900665, 1210.91101074, 39.34000015, 0.00000000
1, 1.0500, 105, 0.00894926, -0.97667527, -0.21818204, 0.40866733, -0.89458948, -0.49027824, 12.69814968, -64.95912170, 48.96012878, -0.08248945, -0.06703846, -4.38105536, 0.99926883, 0.00074169, 0.00055708, 0.03822300, -0.01014040, 0.97814393, -0.78181612, 87.59900665, 1210.91101074, 39.34000015, 0.00000000
1, 1.0600, 106, 0.00529804, -0.97515494, -0.21744180, 0.46200964, -0.79067767, -0.52341348, 12.69814968, -64.95912170, 48.96012878, -0.08164152, -0.06820681, -4.46087027, 0.99924195, 0.00073508, 0.00056704, 0.03891900, -0.00645418, 0.97656596, -0.78255653, 87.59900665, 1210.91101074, 39.34000015, 0.00000000
1, 1.0700, 107, 0.00258210, -0.97420400, -0.21644931, 0.69640249, -0.82200813, -0.59510267, 12.47876072, -64.34340668, 48.59851837, -0.07477487, -0.06417595, -4.47026110, 0.99923885, 0.00067388, 0.00053417, 0.03900084, -0.00372651, 0.97555435, -0.78354913, 87.59900665, 1210.91101074, 39.34000015, 0.00000000
1, 1.0800, 108, 0.00558227, -0.97894746, -0.21835817, 0.92927063, -0.82046568, -0.57820439, 12.00342369, -64.65126801, 48.63658524, -0.06557839, -0.06030234, -4.47962284, 0.99923575, 0.00059241, 0.00050347, 0.03908241, -0.00665569, 0.98015994, -0.78164047, 87.59900665, 1210.91101074, 39.34000015, 0.00000000
1, 1.0900, 109, 0.00556403, -0.98234993, -0.21718280, 0.96620619, -0.74956739, -0.69987506, 12.69814968, -66.27849579, 48.99819565, -0.05600312, -0.05509931, -4.48856735, 0.99923277, 0.00050717, 0.00046132, 0.03916034, -0.00656059, 0.98339009, -0.78281617, 87.59900665, 1210.91101074, 39.34000015, 0.00000000
1, 1.1000, 110, 0.00544000, -0.98518664, -0.21917367, 1.23542225, -0.74717051, -0.71822673, 12.69814968, -64.87116241, 49.22657394, -0.04374877, -0.04970206, -4.49756765, 0.99922967, 0.00039850, 0.00041842, 0.03923875, -0.00634957, 0.98603714, -0.78082561, 87.59900665, 1210.91101074, 39.34000015, 0.00000000
1, 1.1100, 111, 0.00757277, -0.98541057, -0.21844430, 1.21650434, -0.80048889, -0.61381996, 12.69814968, -64.87116241, 49.22657394, -0.03437972, -0.04532940, -4.57771635, 0.99920213, 0.00031558, 0.00038328, 0.03993759, -0.00839346, 0.98605669, -0.78155518, 87.59900665, 1210.91101074, 39.34000015, 0.00000000
1, 1.1200, 112, 0.00743326, -0.98607469, -0.21900442, 1.05258763, -0.63137341, -0.53944969, 12.00342369, -65.04708099, 48.71270752, -0.02393324, -0.04142328, -4.58516836, 0.99919951, 0.00022315, 0.00035284, 0.04000252, -0.00818156, 0.98655808, -0.78099519, 87.59900665, 1210.91101074, 39.34000015, 0.00000000
1, 1.1300, 113, 0.00707575, -0.98507631, -0.21884733, 0.91024518, -0.70053697, -0.57562482, 12.47876072, -65.04708099, 48.71270752, -0.01491694, -0.03731265, -4.59336138, 0.99919665, 0.00014312, 0.00032014, 0.04007393, -0.00775302, 0.98539758, -0.78115237, 87.59900665, 1210.91101074, 39.34000015, 0.00000000
1, 1.1400, 114, 0.00589119, -0.98293960, -0.21816805, 1.04960263, -0.35750228, -0.49852613, 12.40563011, -66.63032532, 48.80787277, -0.00447169, -0.03321330, -4.59804678, 0.99919504, 0.00005062, 0.00028804, 0.04011476, -0.00649911, 0.98308641, -0.78183174, 87.59900665, 1210.91101074, 39.34000015, 0.00000000
1, 1.1500, 115, 0.00554643, -0.98496646, -0.21754020, 0.90682870, -0.51386237, -0.44864166, 12.55188751, -67.15808105, 48.99819565, 0.00452763, -0.02993167, -4.60413980, 0.99919295, -0.00002899, 0.00026258, 0.04016787, -0.00609099, 0.98494744, -0.78245968, 87.59900665, 1210.91101074, 39.34000015, 0.00000000
1, 1.1600, 116, 0.00420488, -0.98720872, -0.21575560, 0.68752235, -0.27770418, -0.30237925, 12.55188751, -66.58635712, 48.80787277, 0.01752059, -0.03653488, -4.67757511, 0.99916697, -0.00013976, 0.00032480, 0.04080814, -0.00473859, 0.98702228, -0.78424418, 87.59900665, 1210.91101074, 39.34000015, 0.00000000
1, 1.1700, 117, 0.00668942, -0.99233860, -0.21090382, 0.48541972, -0.04226495, -0.10344961, 12.55188751, -66.58635712, 48.80787277, 0.02236318, -0.03561598, -4.67826366, 0.99916673, -0.00018231, 0.00031851, 0.04081413, -0.00731417, 0.99197912, -0.78909588, 87.59900665, 1210.91101074, 39.34000015, 0.00000000
1, 1.1800, 118, 0.01061749, -0.99454355, -0.20653838, 0.28413618, -0.03124452, 0.17865090, 12.69814968, -66.36645508, 48.69367981, 0.02521497, -0.03742044, -4.67822027, 0.99916673, -0.00020653, 0.00033526, 0.04081374, -0.01125518, 0.99412251, -0.79346132, 87.59900665, 1210.91101074, 39.34000015, 0.00000000
1, 1.1900, 119, 0.01352877, -0.99351782, -0.20505309, -0.05703252, 0.01754076, 0.18072049, 12.07655048, -65.75074005, 48.69367981, 0.02465600, -0.03915335, -4.67764950, 0.99916685, -0.00020104, 0.00035017, 0.04080877, -0.01420501, 0.99308163, -0.79494655, 87.59900665, 1210.91101074, 39.34000015, 0.00000000
1, 1.2000, 120, 0.01221722, -0.98853296, -0.20927773, -0.07385410, -0.05063791, 0.14418197, 12.73470974, -64.87116241, 49.01722336, 0.02392442, -0.04066977, -4.67781734, 0.99916685, -0.00019412, 0.00036314, 0.04081023, -0.01291668, 0.98810941, -0.79072201, 87.59900665, 1210.91101074, 39.34000015, 0.00000000
1, 1.2100, 121, 0.01163033, -0.98429775, -0.21362290, -0.03556086, -0.29020882, 0.12144983, 12.36906433, -64.69524384, 49.05529022, 0.02639183, -0.03618760, -4.75303316, 0.99913985, -0.00021702, 0.00032507, 0.04146605, -0.01233709, 0.98387164, -0.78637677, 87.59900665, 1210.91101074, 39.34000015, 0.00000000
1, 1.2200, 122, 0.01109796, -0.98098570, -0.21538955, 0.14675127, -0.26792401, -0.10715754, 12.36906433, -64.69524384, 49.05529022, 0.02782106, -0.03571545, -4.75589800, 0.99913877, -0.00022964, 0.00032148, 0.04149103, -0.01173068, 0.98051226, -0.78461015, 87.59900665, 1210.91101074, 39.34000015, 0.00000000
1, 1.2300, 123, 0.01084135, -0.97940570, -0.21725789, 0.29396519, -0.38371593, -0.30340379, 11.85716152, -64.87116241, 49.01722336, 0.03072129, -0.03357430, -4.76032114, 0.99913722, -0.00025569, 0.00030387, 0.04152960, -0.01144203, 0.97888654, -0.78274179, 87.59900665, 1210.91101074, 39.34000015, 0.00000000
1, 1.2400, 124, 0.01146130, -0.97857851, -0.21890669, 0.54517972, -0.34686762, -0.33855438, 12.11311531, -67.02614594, 49.30270386, 0.03612799, -0.03100987, -4.76449203, 0.99913573, -0.00030376, 0.00028348, 0.04156595, -0.01201693, 0.97798836, -0.78109300, 87.59900665, 1210.91101074, 39.34000015, 0.00000000
1, 1.2500, 125, 0.00970373, -0.97849870, -0.21981759, 0.63504755, -0.44994053, -0.28826141, 11.78403568, -66.63032532, 49.15044403, 0.04241271, -0.02915824, -4.76958227, 0.99913388, -0.00035921, 0.00026963, 0.04161033, -0.01022310, 0.97779965, -0.78018200, 87.59900665, 1210.91101074, 39.34000015, 0.00000000
1, 1.2600, 126, 0.00927482, -0.97736216, -0.21879877, 0.77936774, -0.51713955, -0.30769411, 12.66158390, -65.66278839, 49.09334946, 0.04409791, -0.02941840, -4.84480858, 0.99910629, -0.00037363, 0.00027276, 0.04226622, -0.00977072, 0.97656560, -0.78120083, 87.59900665, 1210.91101074, 39.34000015, 0.00000000
1, 1.2700, 127, 0.00773946, -0.98126447, -0.22025886, 0.85166538, -0.49856436, -0.36025974, 12.66158390, -65.66278839, 49.09334946, 0.05254886, -0.02697306, -4.85055590, 0.99910420, -0.00044820, 0.00025458, 0.04231632, -0.00822768, 0.98040026, -0.77974063, 87.59900665, 1210.91101074, 39.34000015, 0.00000000
1, 1.2800, 128, 0.00754013, -0.98500621, -0.21899560, 0.76126367, -0.55215889, -0.27321836, 11.74746990, -65.44289398, 48.96012878, 0.06008817, -0.02548480, -4.85661697, 0.99910188, -0.00051447, 0.00024441, 0.04236916, -0.00799546, 0.98400569, -0.78100383, 87.59900665, 1210.91101074, 39.34000015, 0.00000000
1, 1.2900, 129, 0.00575628, -0.98667574, -0.21721171, 0.81528467, -0.60348171, -0.25688434, 12.69814968, -65.70676422, 49.41689682, 0.06817425, -0.02426758, -4.86317110, 0.99909937, -0.00058541, 0.00023682, 0.04242629, -0.00618873, 0.98553872, -0.78278756, 87.59900665, 1210.91101074, 39.34000015, 0.00000000
1, 1.3000, 130, 0.00589961, -0.98691458, -0.21542729, 0.59944308, -0.39790389, -0.33979341, 12.66158390, -64.73921967, 48.96012878, 0.07412166, -0.02181149, -4.86784315, 0.99909765, -0.00063817, 0.00021764, 0.04246703, -0.00630018, 0.98565680, -0.78457183, 87.59900665, 1210.91101074, 39.34000015, 0.00000000
1, 1.3100, 131, 0.00730416, -0.98422992, -0.21816187, 0.54640847, -0.29340351, -0.46048224, 12.99066353, -66.14656067, 48.99819565, 0.07238829, -0.02526094, -4.94288206, 0.99906969, -0.00062161, 0.00024748, 0.04312125, -0.00767275, 0.98290777, -0.78183717, 87.59900665, 1210.91101074, 39.34000015, 0.00000000
1, 1.3200, 132, 0.00784087, -0.98190111, -0.21644704, 0.48852372, -0.19463405, -0.22971065, 12.99066353, -66.14656067, 48.99819565, 0.07724646, -0.02344225, -4.94531584, 0.99906874, -0.00066465, 0.00023346, 0.04314247, -0.00826298, 0.98058152, -0.78355205, 87.59900665, 1210.91101074, 39.34000015, 0.00000000
1, 1.3300, 133, 0.00738688, -0.98135036, -0.21503270, 0.45162031, -0.16146953, -0.17616558, 12.77127552, -64.51932526, 49.43593216, 0.08175004, -0.02206231, -4.94732285, 0.99906796, -0.00070443, 0.00022314, 0.04315996, -0.00777985, 0.97995377, -0.78496623, 87.59900665, 1210.91101074, 39.34000015, 0.00000000
1, 1.3400, 134, 0.00657511, -0.98417413, -0.21260034, 0.47113088, -0.28082514, -0.21389119, 12.55188751, -65.04708099, 49.62625122, 0.08641876, -0.02057104, -4.95058012, 0.99906671, -0.00074569, 0.00021192, 0.04318836, -0.00694213, 0.98269355, -0.78739858, 87.59900665, 1210.91101074, 39.34000015, 0.00000000
1, 1.3500, 135, 0.01012523, -0.98558599, -0.21257168, 0.75777715, -0.33089218, -0.16308597, 12.07655048, -64.91514587, 49.13142014, 0.09396434, -0.01968151, -4.95424175, 0.99906528, -0.00081180, 0.00020703, 0.04322028, -0.01047502, 0.98399341, -0.78742695, 87.59900665, 1210.91101074, 39.34000015, 0.00000000
1, 1.3600, 136, 0.01028781, -0.98710674, -0.21067317, 0.68454212, -0.24655066, -0.10835376, 11.60121250, -65.13504028, 48.92206573, 0.10819961, -0.02010094, -5.02942514, 0.99903655, -0.00093561, 0.00021667, 0.04387572, -0.01063257, 0.98536670, -0.78932524, 87.59900665, 1210.91101074, 39.34000015, 0.00000000
1, 1.3700, 137, 0.01162967, -0.98665774, -0.21280907, 0.70214486, -0.26413584, -0.07362069, 11.60121250, -65.13504028, 48.92206573, 0.11519544, -0.01995068, -5.03223276, 0.99903536, -0.00099666, 0.00021807, 0.04390019, -0.01197444, 0.98469061, -0.78718895, 87.59900665, 1210.91101074, 39.34000015, 0.00000000
1, 1.3800, 138, 0.01139088, -0.98623210, -0.21099329, 0.68464452, -0.17707993, -0.15962847, 11.89372730, -64.60728455, 49.32173538, 0.12202036, -0.01876674, -5.03438663, 0.99903452, -0.00105661, 0.00021038, 0.04391896, -0.01172433, 0.98415124, -0.78900450, 87.59900665, 1210.91101074, 39.34000015, 0.00000000
1, 1.3900, 139, 0.01206067, -0.98398286, -0.21386209, 0.63214868, -0.15862992, -0.26454982, 12.51532650, -64.91514587, 49.45495987, 0.12832160, -0.01652209, -5.03657341, 0.99903363, -0.00111240, 0.00019325, 0.04393804, -0.01236182, 0.98178279, -0.78613549, 87.59900665, 1210.91101074, 39.34000015, 0.00000000
1, 1.4000, 140, 0.01483490, -0.98591262, -0.21261488, 0.64943910, -0.14190955, -0.22909456, 12.03998470, -65.92666626, 49.24560928, 0.13478790, -0.01459237, -5.03851414, 0.99903286, -0.00116951, 0.00017892, 0.04395497, -0.01509886, 0.98359889, -0.78738236, 87.59900665, 1210.91101074, 39.34000015, 0.00000000
1, 1.4100, 141, 0.01321826, -0.98497772, -0.21348736, 0.17775616, 0.02820131, -0.06641939, 12.22280693, -65.61880493, 49.13142014, 0.13541323, 0.00235403, -5.11022949, 0.99900520, -0.00118144, 0.00003216, 0.04458037, -0.01338899, 0.98259664, -0.78650975, 87.59900665, 1210.91101074, 39.34000015, 0.00000000
1, 1.4200, 142, 0.01283901, -0.98452741, -0.21339597, -0.14926153, 0.20087041, 0.00797536, 12.22280693, -65.61880493, 49.13142014, 0.13395198, 0.00270246, -5.10822964, 0.99900591, -0.00116884, 0.00002853, 0.04456294, -0.01279254, 0.98217881, -0.78660131, 87.59900665, 1210.91101074, 39.34000015, 0.00000000
1, 1.4300, 143, 0.01068074, -0.98353559, -0.21255091, -0.22154289, 0.23432663, 0.02647823, 12.14968109, -65.61880493, 49.55012131, 0.13176331, 0.00293583, -5.10585737, 0.99900687, -0.00114985, 0.00002562, 0.04454225, -0.01063095, 0.98121798, -0.78744638, 87.59900665, 1210.91101074, 39.34000015, 0.00000000
1, 1.4400, 144, 0.01103311, -0.98586673, -0.21327144, -0.49202508, 0.31712058, 0.08178141, 12.73470974, -65.44289398, 49.45495987, 0.12688576, 0.00281475, -5.10252380, 0.99900818, -0.00110728, 0.00002475, 0.04451320, -0.01098390, 0.98362017, -0.78672600, 87.59900665, 1210.91101074, 39.34000015, 0.00000000
1, 1.4500, 145, 0.01138982, -0.98783958, -0.21152790, -0.56433886, 0.24651398, 0.16840982, 11.78403568, -65.09105682, 48.84593582, 0.12126758, 0.00168491, -5.09969139, 0.99900937, -0.00105787, 0.00003239, 0.04448849, -0.01135033, 0.98568618, -0.78846979, 87.59900665, 1210.91101074, 39.34000015, 0.00000000
1, 1.4600, 146, 0.01109610, -0.98916411, -0.21092524, -0.54663354, 0.29839954, 0.15186816, 11.96685791, -65.61880493, 48.75077820, 0.12337507, 0.00619319, -5.16806364, 0.99898267, -0.00107799, -0.00000545, 0.04508460, -0.01105094, 0.98707277, -0.78907257, 87.59900665, 1210.91101074, 39.34000015, 0.00000000
1, 1.4700, 147, 0.01134004, -0.98731059, -0.21029392, -0.52864838, 0.21191671, 0.20272988, 13.21005249, -67.02614594, 49.30270386, 0.11812343, 0.00465674, -5.16548872, 0.99898374, -0.00103160, 0.00000585, 0.04506213, -0.01124701, 0.98521459, -0.78970385, 87.59900665, 1210.91101074, 39.34000015, 0.00000000
1, 1.4800, 148, 0.01022085, -0.98743111, -0.20947626, -0.60353231, 0.45034662, 0.27828497, 13.21005249, -67.02614594, 49.30270386, 0.11214206, 0.00289390, -5.16042376, 0.99898577, -0.00097877, 0.00001883, 0.04501796, -0.01016474, 0.98543406, -0.79052174, 87.59900665, 1210.91101074, 39.34000015, 0.00000000
1, 1.4900, 149, 0.01028765, -0.98729533, -0.21030530, -0.65659934, 0.45078421, 0.22572158, 12.44219589, -66.54237366, 49.22657394, 0.10563694, 0.00165173, -5.15545750, 0.99898779, -0.00092157, 0.00002706, 0.04497466, -0.01024523, 0.98540783, -0.78969294, 87.59900665, 1210.91101074, 39.34000015, 0.00000000
1, 1.5000, 150, 0.01144366, -0.98618555, -0.21000780, -0.74821866, 0.63847476, 0.24752624, 12.22280693, -66.41043091, 49.56915665, 0.09823509, 0.00059407, -5.14860678, 0.99899054, -0.00085663, 0.00003332, 0.04491493, -0.01142556, 0.98442018, -0.78999066, 87.59900665, 1210.91101074, 39.34000015, 0.00000000
1, 1.5100, 151, 0.01185346, -0.98588288, -0.21144727, -0.81882101, 0.61849755, 0.27986962, 11.96685791, -64.73921967, 49.15044403, 0.09506829, 0.00289174, -5.21421194, 0.99896461, -0.00082992, 0.00001253, 0.04548687, -0.01184547, 0.98423934, -0.78855139, 87.59900665, 1210.91101074, 39.34000015, 0.00000000
1, 1.5200, 152, 0.01010157, -0.98692226, -0.21095079, -0.56241345, 0.47789291, 0.28587961, 12.00342369, -64.47534943, 49.16947937, 0.08951342, 0.00112439, -5.20885515, 0.99896681, -0.00078079, 0.00002569, 0.04544017, -0.01006852, 0.98532283, -0.78904796, 87.59900665, 1210.91101074, 39.34000015, 0.00000000
1, 1.5300, 153, 0.00957569, -0.98746330, -0.20997582, -0.50922751, 0.59895748, 0.25310549, 12.00342369, -64.47534943, 49.16947937, 0.08450329, -0.00006883, -5.20241165, 0.99896944, -0.00073664, 0.00003407, 0.04538399, -0.00957116, 0.98595679, -0.79002309, 87.59900665, 1210.91101074, 39.34000015, 0.00000000
1, 1.5400, 154, 0.01100202, -0.98510933, -0.21102026, -0.52644777, 0.54764503, 0.23450111, 12.14968109, -65.31095886, 49.22657394, 0.07930974, -0.00118598, -5.19649220, 0.99897170, -0.00069093, 0.00004171, 0.04533237, -0.01101679, 0.98369271, -0.78897876, 87.59900665, 1210.91101074, 39.34000015, 0.00000000
1, 1.5500, 155, 0.01203257, -0.98391026, -0.21069273, -0.57975751, 0.54779601, 0.19951080, 12.07655048, -66.89420319, 49.43593216, 0.07358424, -0.00196620, -5.19065332, 0.99897408, -0.00064071, 0.00004622, 0.04528147, -0.01206156, 0.98259377, -0.78930640, 87.59900665, 1210.91101074, 39.34000015, 0.00000000
1, 1.5600, 156, 0.01520960, -0.98353714, -0.21013230, -0.47037920, 0.32536757, 0.21207812, 12.36906433, -65.44289398, 49.26464081, 0.08274385, 0.00867079, -5.25974703, 0.99894649, -0.00072479, -0.00004246, 0.04588386, -0.01520400, 0.98224223, -0.78986692, 87.59900665, 1210.91101074, 39.34000015, 0.00000000
1, 1.5700, 157, 0.01786008, -0.98358065, -0.20874983, -0.45107868, 0.30978829, 0.12379999, 11.78403568, -66.85022736, 49.32173538, 0.07827434, 0.00812049, -5.25640059, 0.99894786, -0.00068560, -0.00003947, 0.04585468, -0.01771527, 0.98217976, -0.79124916, 87.59900665, 1210.91101074, 39.34000015, 0.00000000
1, 1.5800, 158, 0.01817363, -0.98592710, -0.20851709, -0.61535686, 0.35711488, 0.30108070, 11.78403568, -66.85022736, 49.32173538, 0.07217029, 0.00594272, -5.25220108, 0.99894965, -0.00063152, -0.00002295, 0.04581806, -0.01805892, 0.98462802, -0.79148209, 87.59900665, 1210.91101074, 39.34000015, 0.00000000
1, 1.5900, 159, 0.01682785, -0.98745549, -0.20755816, -0.56017196, 0.15113057, 0.33173791, 12.22280693, -65.75074005, 49.15044403, 0.06659984, 0.00303448, -5.24995995, 0.99895060, -0.00058180, 0.00000016, 0.04579851, -0.01675107, 0.98625809, -0.79244113, 87.59900665, 1210.91101074, 39.34000015, 0.00000000
1, 1.6000, 160, 0.01431872, -0.98759180, -0.20703271, -0.59379882, 0.06680464, 0.22459811, 11.82060146, -65.00309753, 49.20754623, 0.06066459, 0.00098008, -5.24875116, 0.99895108, -0.00052923, 0.00001570, 0.04578796, -0.01428642, 0.98649096, -0.79296666, 87.59900665, 1210.91101074, 39.34000015, 0.00000000
1, 1.6100, 161, 0.01341905, -0.98720139, -0.20750126, -0.66432363, -0.22707456, 0.32410529, 12.40563011, -65.00309753, 48.84593582, 0.07136087, 0.00536435, -5.32305098, 0.99892116, -0.00062424, -0.00001784, 0.04643568, -0.01341082, 0.98613566, -0.79249811, 87.59900665, 1210.91101074, 39.34000015, 0.00000000
1, 1.6200, 162, 0.01435547, -0.98544127, -0.20806301, -0.54780900, -0.36831349, 0.09500867, 12.36906433, -66.05860138, 49.35980225, 0.06584315, 0.00364504, -5.32638168, 0.99891973, -0.00057545, -0.00000508, 0.04646471, -0.01428350, 0.98425323, -0.79193628, 87.59900665, 1210.91101074, 39.34000015, 0.00000000
1, 1.6300, 163, 0.01379403, -0.98511261, -0.20815909, -0.43884557, -0.62590724, 0.15957291, 12.36906433, -66.05860138, 49.35980225, 0.06139283, 0.00074842, -5.33210707, 0.99891752, -0.00053548, 0.00001840, 0.04651460, -0.01375851, 0.98401082, -0.79184031, 87.59900665, 1210.91101074, 39.34000015, 0.00000000
1, 1.6400, 164, 0.01506199, -0.98572296, -0.20691890, -0.47371742, -0.81572866, 0.20842376, 12.36906433, -64.78320312, 49.64528275, 0.05657183, -0.00303179, -5.33954811, 0.99891448, -0.00049191, 0.00004942, 0.04657945, -0.01508889, 0.98470128, -0.79308057, 87.59900665, 1210.91101074, 39.34000015, 0.00000000
1, 1.6500, 165, 0.01546912, -0.98432195, -0.20644286, -0.34769520, -0.76213938, 0.13885158, 11.82060146, -65.48686981, 49.07432175, 0.05301520, -0.00601426, -5.34666729, 0.99891162, -0.00045969, 0.00007401, 0.04664150, -0.01555234, 0.98337412, -0.79355657, 87.59900665, 1210.91101074, 39.34000015, 0.00000000
1, 1.6600, 166, 0.01449842, -0.98552394, -0.20652363, -0.25630221, -0.89808506, 0.10055723, 12.00342369, -65.17901611, 48.96012878, 0.07081448, 0.00157917, -5.42816353, 0.99887818, -0.00061793, 0.00001550, 0.04735193, -0.01459650, 0.98454052, -0.79347593, 87.59900665, 1210.91101074, 39.34000015, 0.00000000
1, 1.6700, 167, 0.01367349, -0.98645794, -0.20604704, -0.32641718, -0.91408134, -0.00503437, 11.71090508, -66.93818665, 49.55012131, 0.06745332, -0.00032349, -5.43705893, 0.99887443, -0.00058784, 0.00003074, 0.04742946, -0.01367041, 0.98526460, -0.79395223, 87.59900665, 1210.91101074, 39.34000015, 0.00000000
1, 1.6800, 168, 0.01432272, -0.98732829, -0.20435391, -0.11009580, -0.87636817, -0.11037327, 11.71090508, -66.93818665, 49.55012131, 0.06624894, -0.00112482, -5.44585705, 0.99887085, -0.00057701, 0.00003727, 0.04750615, -0.01433737, 0.98616612, -0.79564542, 87.59900665, 1210.91101074, 39.34000015, 0.00000000
1, 1.6900, 169, 0.01406881, -0.98618269, -0.20573306, -0.14753772, -0.75715333, -0.07259578, 11.89372730, -64.78320312, 49.56915665, 0.06468625, -0.00203719, -5.45339012, 0.99886763, -0.00056301, 0.00004461, 0.04757181, -0.01409859, 0.98504305, -0.79426628, 87.59900665, 1210.91101074, 39.34000015, 0.00000000
1, 1.7000, 170, 0.01372224, -0.98544610, -0.20637770, -0.23722817, -0.86191946, -0.00421067, 11.93029308, -65.04708099, 49.32173538, 0.06221103, -0.00384062, -5.46178722, 0.99886417, -0.00054068, 0.00005934, 0.04764500, -0.01377799, 0.98434323, -0.79362172, 87.59900665, 1210.91101074, 39.34000015, 0.00000000
1, 1.7100, 171, 0.01169246, -0.98456907, -0.20587052, -0.23731428, -0.87935883, 0.01300128, 12.18624687, -64.60728455, 49.26464081, 0.08045548, -0.00210461, -5.54379988, 0.99882972, -0.00070040, 0.00005230, 0.04835987, -0.01176537, 0.98342133, -0.79412878, 87.59900665, 1210.91101074, 39.34000015, 0.00000000
1, 1.7200, 172, 0.00954268, -0.98500979, -0.20700483, -0.14732783, -0.86092955, -0.02204322, 11.82060146, -65.26697540, 49.66431046, 0.07888934, -0.00373102, -5.55223608, 0.99882627, -0.00068605, 0.00006586, 0.04843340, -0.00959971, 0.98362237, -0.79299426, 87.59900665, 1210.91101074, 39.34000015, 0.00000000
1, 1.7300, 173, 0.01052817, -0.98682928, -0.20669942, -0.23969088, -0.72613013, 0.08654322, 12.55188751, -65.26697540, 49.75947571, 0.07641137, -0.00612795, -5.55911636, 0.99882329, -0.00066344, 0.00008575, 0.04849336, -0.01061708, 0.98547560, -0.79329967, 87.59900665, 1210.91101074, 39.34000015, 0.00000000
1, 1.7400, 174, 0.01054826, -0.98770159, -0.20744389, -0.09573685, -0.67240006, 0.01691912, 12.55188751, -67.24604034, 49.75947571, 0.07537438, -0.00773384, -5.56562757, 0.99882054, -0.00065371, 0.00009935, 0.04855010, -0.01067270, 0.98638237, -0.79255521, 87.59900665, 1210.91101074, 39.34000015, 0.00000000
1, 1.7500, 175, 0.01231755, -0.98863810, -0.20632362, -0.09584451, -0.49915302, -0.08490808, 12.14968109, -65.53085327, 49.75947571, 0.07436836, -0.00796437, -5.57067871, 0.99881840, -0.00064484, 0.00010096, 0.04859412, -0.01245245, 0.98734128, -0.79367554, 87.59900665, 1210.91101074, 39.34000015, 0.00000000
1, 1.7600, 176, 0.01430034, -0.98618269, -0.20748433, -0.12980004, -0.60120487, -0.15726295, 12.36906433, -66.01461792, 49.49302673, 0.09196782, 0.00533264, -5.64906740, 0.99878478, -0.00080389, -0.00000693, 0.04927745, -0.01438319, 0.98481536, -0.79251474, 87.59900665, 1210.91101074, 39.34000015, 0.00000000
1, 1.7700, 177, 0.01534665, -0.98649192, -0.20621361, -0.21937162, -0.58446896, -0.17421533, 12.84440613, -66.49839020, 49.11238480, 0.08970693, 0.00578886, -5.65514040, 0.99878228, -0.00078438, -0.00001184, 0.04933039, -0.01524981, 0.98491418, -0.79378515, 87.59900665, 1210.91101074, 39.34000015, 0.00000000
1, 1.7800, 178, 0.01612814, -0.98627722, -0.20752658, -0.32536614, -0.65277803, -0.24564032, 11.74746990, -64.69524384, 49.32173538, 0.08637471, 0.00678551, -5.66199541, 0.99877930, -0.00075577, -0.00002191, 0.04939014, -0.01601298, 0.98475295, -0.79247230, 87.59900665, 1210.91101074, 39.34000015, 0.00000000
1, 1.7900, 179, 0.01345351, -0.98659313, -0.20540427, -0.20181759, -0.75814843, -0.03729400, 11.74746990, -64.69524384, 49.32173538, 0.08426542, 0.00553177, -5.66946363, 0.99877608, -0.00073684, -0.00001185, 0.04945523, -0.01334900, 0.98510933, -0.79459465, 87.59900665, 1210.91101074, 39.34000015, 0.00000000
1, 1.8000, 180, 0.01232319, -0.98730439, -0.20582171, -0.43270797, -0.89605337, -0.10979998, 11.71090508, -64.69524384, 49.15044403, 0.07983686, 0.00468067, -5.67839861, 0.99877226, -0.00069788, -0.00000629, 0.04953310, -0.01223709, 0.98588389, -0.79417729, 87.59900665, 1210.91101074, 39.34000015, 0.00000000
1, 1.8100, 181, 0.01150767, -0.98790687, -0.20706567, -0.45325834, -0.74325180, -0.01863309, 12.88097191, -64.47534943, 49.39786530, 0.09634326, 0.00817174, -5.75881624, 0.99873710, -0.00084327, -0.00002899, 0.05023403, -0.01142337, 0.98647463, -0.79293329, 87.59900665, 1210.91101074, 39.34000015, 0.00000000
1, 1.8200, 182, 0.01189501, -0.98840463, -0.20801882, -0.47100118, -0.65648240, -0.08706784, 12.47876072, -65.39891052, 49.39786530, 0.09156175, 0.00762448, -5.76537371, 0.99873435, -0.00080136, -0.00002627, 0.05029118, -0.01175859, 0.98677731, -0.79197991, 87.59900665, 1210.91101074, 39.34000015, 0.00000000
1, 1.8300, 183, 0.01137614, -0.98874414, -0.20824231, -0.43210411, -0.77397805, -0.23028350, 11.96685791, -64.65126801, 48.84593582, 0.08715338, 0.00821911, -5.77337551, 0.99873078, -0.00076320, -0.00003333, 0.05036092, -0.01123399, 0.98719072, -0.79175645, 87.59900665, 1210.91101074, 39.34000015, 0.00000000
1, 1.8400, 184, 0.01296811, -0.98727751, -0.20892207, -0.50648171, -0.72566140, -0.07083536, 11.96685791, -64.65126801, 48.84593582, 0.08200581, 0.00735819, -5.78054380, 0.99872768, -0.00071796, -0.00002805, 0.05042338, -0.01283221, 0.98581839, -0.79107690, 87.59900665, 1210.91101074, 39.34000015, 0.00000000
1, 1.8500, 185, 0.01258143, -0.98536605, -0.21066640, -0.57779300, -0.69105893, -0.12262461, 12.07655048, -66.85022736, 48.97916031, 0.07614097, 0.00708024, -5.78749657, 0.99872470, -0.00066673, -0.00002816, 0.05048398, -0.01245246, 0.98399591, -0.78933263, 87.59900665, 1210.91101074, 39.34000015, 0.00000000
1, 1.8600, 186, 0.01159299, -0.98342657, -0.21084790, -0.54139107, -0.77682805, -0.10696087, 12.47876072, -64.91514587, 49.55012131, 0.08026137, 0.00922662, -5.86739397, 0.99868923, -0.00070362, -0.00004456, 0.05118033, -0.01146178, 0.98211610, -0.78915119, 87.59900665, 1210.91101074, 39.34000015, 0.00000000
1, 1.8700, 187, 0.01119993, -0.98404288, -0.21079507, -0.50542551, -0.70707589, -0.15833940, 12.55188751, -66.67430878, 49.51205444, 0.07511891, 0.00926136, -5.87458611, 0.99868602, -0.00065882, -0.00004712, 0.05124301, -0.01103737, 0.98270464, -0.78920406, 87.59900665, 1210.91101074, 39.34000015, 0.00000000
1, 1.8800, 188, 0.01118863, -0.98359334, -0.21029969, -0.57644057, -0.75881034, -0.17678806, 11.96685791, -65.26697540, 49.11238480, 0.06927156, 0.00936500, -5.88230801, 0.99868268, -0.00060791, -0.00005060, 0.05131030, -0.01102762, 0.98234177, -0.78969955, 87.59900665, 1210.91101074, 39.34000015, 0.00000000
1, 1.8900, 189, 0.01024339, -0.98590857, -0.21131121, -0.86636323, -0.59125292, -0.06690839, 11.96685791, -65.26697540, 49.11238480, 0.06053998, 0.00875503, -5.88814592, 0.99868000, -0.00053154, -0.00004917, 0.05136117, -0.01008613, 0.98479354, -0.78868812, 87.59900665, 1210.91101074, 39.34000015, 0.00000000
1, 1.9000, 190, 0.00795398, -0.98591024, -0.21139774, -0.81515497, -0.33382580, -0.04407467, 12.29593849, -65.17901611, 49.09334946, 0.05234927, 0.00847046, -5.89141130, 0.99867862, -0.00046003, -0.00005034, 0.05138963, -0.00780200, 0.98494214, -0.78860176, 87.59900665, 1210.91101074, 39.34000015, 0.00000000
1, 1.9100, 191, 0.00718968, -0.98681438, -0.21082799, -0.74517989, -0.24864544, 0.02781525, 12.36906433, -66.32247925, 49.55012131, 0.05840017, -0.00104095, -5.96409130, 0.99864578, -0.00050847, 0.00003558, 0.05202299, -0.00709017, 0.98592013, -0.78917158, 87.59900665, 1210.91101074, 39.34000015, 0.00000000
1, 1.9200, 192, 0.00701077, -0.98636496, -0.21245745, -0.69362170, -0.16417882, 0.13490316, 12.55188751, -65.88268280, 49.28366852, 0.05144778, -0.00271531, -5.96532536, 0.99864525, -0.00044713, 0.00004702, 0.05203374, -0.00704989, 0.98542273, -0.78754216, 87.59900665, 1210.91101074, 39.34000015, 0.00000000
1, 1.9300, 193, 0.00774072, -0.98590720, -0.21180005, -0.87512493, 0.07455315, 0.14047757, 12.22280693, -66.71829224, 49.22657394, 0.04270945, -0.00392156, -5.96419668, 0.99864578, -0.00037043, 0.00005357, 0.05202391, -0.00780143, 0.98510331, -0.78819966, 87.59900665, 1210.91101074, 39.34000015, 0.00000000
1, 1.9400, 194, 0.00924302, -0.98742241, -0.21096376, -0.82297909, 0.22906363, 0.16114470, 12.22280693, -66.71829224, 49.22657394, 0.03450709, -0.00500551, -5.96152687, 0.99864709, -0.00029845, 0.00005928, 0.05200064, -0.00932416, 0.98676950, -0.78903604, 87.59900665, 1210.91101074, 39.34000015, 0.00000000
1, 1.9500, 195, 0.01232646, -0.98890376, -0.20687926, -0.53000987, 0.91077369, 0.26027369, 12.29593849, -64.73921967, 48.99819565, 0.02931563, -0.00558103, -5.95201635, 0.99865133, -0.00025295, 0.00006192, 0.05191776, -0.01242094, 0.98835385, -0.79312062, 87.59900665, 1210.91101074, 39.34000015, 0.00000000
1, 1.9600, 196, 0.01426690, -0.99081135, -0.20588715, -0.72789848, 0.92580575, 0.29635188, 12.22280693, -64.87116241, 49.28366852, 0.03445365, 0.00238578, -6.01383686, 0.99862319, -0.00030134, -0.00000502, 0.05245653, -0.01433672, 0.99032664, -0.79411274, 87.59900665, 1210.91101074, 39.34000015, 0.00000000
1, 1.9700, 197, 0.01490229, -0.98564047, -0.20648928, -0.74543107, 0.90879887, 0.27846968, 11.96685791, -65.13504028, 49.20754623, 0.02709620, 0.00161388, -6.00428534, 0.99862760, -0.00023687, -0.00000168, 0.05237329, -0.01486895, 0.98512453, -0.79351056, 87.59900665, 1210.91101074, 39.34000015, 0.00000000
1, 1.9800, 198, 0.01353047, -0.98272496, -0.20706797, -0.47580022, 0.94636089, 0.20812112, 13.21005249, -66.32247925, 49.66431046, 0.02245175, 0.00161858, -5.99454355, 0.99863207, -0.00019640, -0.00000386, 0.05228839, -0.01350224, 0.98229796, -0.79293197, 87.59900665, 1210.91101074, 39.34000015, 0.00000000
1, 1.9900, 199, 0.01329982, -0.98414534, -0.21006520, -0.68933016, 0.79058433, 0.18792115, 13.21005249, -66.32247925, 49.66431046, 0.01565930, 0.00148266, -5.98633909, 0.99863577, -0.00013714, -0.00000579, 0.05221689, -0.01327643, 0.98382765, -0.78993475, 87.59900665, 1210.91101074, 39.34000015, 0.00000000
1, 2.0000, 200, 0.01295883, -0.98528630, -0.21152322, -0.76007009, 0.84319919, 0.08377390, 11.96685791, -67.37797546, 49.68334579, 0.00815648, 0.00248800, -5.97784138, 0.99863970, -0.00007221, -0.00001797, 0.05214284, -0.01292490, 0.98509490, -0.78847677, 87.59900665, 1210.91101074, 39.34000015, 0.00000000
1, 2.0100, 201, 0.01203465, -0.98510396, -0.21236275, -0.52590328, 0.86361361, -0.00440498, 12.95409870, -65.75074005, 49.68334579, 0.00978974, 0.00730368, -6.04009104, 0.99861115, -0.00008867, -0.00005915, 0.05268532, -0.01195980, 0.98499489, -0.78763723, 87.59900665, 1210.91101074, 39.34000015, 0.00000000
1, 2.0200, 202, 0.01136390, -0.98355234, -0.21278971, -0.34601656, 0.88303286, -0.05728204, 12.62501812, -66.23451233, 49.20754623, 0.00642276, 0.00976702, -6.03154516, 0.99861515, -0.00006046, -0.00008217, 0.05261085, -0.01121143, 0.98342091, -0.78721023, 87.59900665, 1210.91101074, 39.34000015, 0.00000000
1, 2.0300, 203, 0.01106204, -0.98398203, -0.21288839, -0.31070834, 0.91733325, -0.03909070, 12.00342369, -65.09105682, 48.61755371, 0.00341112, 0.01211734, -6.02263927, 0.99861926, -0.00003528, -0.00010403, 0.05253324, -0.01086427, 0.98390788, -0.78711158, 87.59900665, 1210.91101074, 39.34000015, 0.00000000
1, 2.0400, 204, 0.00836316, -0.98356384, -0.21291487, -0.36256310, 0.91920358, -0.17951913, 12.00342369, -65.09105682, 48.61755371, -0.00011103, 0.01585111, -6.01400518, 0.99862313, -0.00000629, -0.00013819, 0.05245799, -0.00810883, 0.98354119, -0.78708506, 87.59900665, 1210.91101074, 39.34000015, 0.00000000
1, 2.0500, 205, 0.00757358, -0.98376721, -0.21430954, -0.45097074, 0.78127795, -0.18214837, 12.44219589, -65.31095886, 49.34076691, -0.00453543, 0.01931779, -6.00671816, 0.99862647, 0.00003069, -0.00017042, 0.05239448, -0.00726206, 0.98381078, -0.78569031, 87.59900665, 1210.91101074, 39.34000015, 0.00000000
1, 2.0600, 206, 0.00699757, -0.98544830, -0.21260487, -0.61249489, 0.84919590, -0.21538278, 12.47876072, -66.93818665, 49.15044403, -0.00548120, 0.01703962, -6.06727743, 0.99859869, 0.00003990, -0.00015102, 0.05292223, -0.00664416, 0.98557264, -0.78739512, 87.59900665, 1210.91101074, 39.34000015, 0.00000000
1, 2.0700, 207, 0.00665349, -0.98508370, -0.21285215, -0.48803014, 0.83159536, -0.12824218, 12.73470974, -65.17901611, 49.56915665, -0.01026971, 0.02008949, -6.05938816, 0.99860233, 0.00008023, -0.00017981, 0.05285347, -0.00632535, 0.98523128, -0.78714782, 87.59900665, 1210.91101074, 39.34000015, 0.00000000
1, 2.0800, 208, 0.00753306, -0.98400545, -0.21274251, -0.45461348, 1.01969755, -0.07165487, 12.66158390, -65.13504028, 49.26464081, -0.01470143, 0.02298695, -6.04953671, 0.99860680, 0.00011753, -0.00020709, 0.05276760, -0.00715468, 0.98423028, -0.78725743, 87.59900665, 1210.91101074, 39.34000015, 0.00000000
1, 2.0900, 209, 0.00835862, -0.98291326, -0.21358718, -0.57943940, 0.91550952, -0.05588505, 12.14968109, -64.73921967, 49.09334946, -0.02038411, 0.02550546, -6.04065084, 0.99861097, 0.00016591, -0.00023164, 0.05269016, -0.00793019, 0.98323035, -0.78641272, 87.59900665, 1210.91101074, 39.34000015, 0.00000000
1, 2.1000, 210, 0.00878951, -0.98225218, -0.21453156, -0.41997907, 0.96651477, 0.05016921, 12.14968109, -64.73921967, 49.09334946, -0.02447077, 0.02709709, -6.03104782, 0.99861532, 0.00020081, -0.00024737, 0.05260646, -0.00832985, 0.98265445, -0.78546828, 87.59900665, 1210.91101074, 39.34000015, 0.00000000
1, 2.1100, 211, 0.00790177, -0.98431873, -0.21184844, -0.50830066, 0.84602833, 0.03032810, 13.21005249, -65.17901611, 49.39786530, -0.02109819, 0.01764664, -6.09288025, 0.99858683, 0.00017567, -0.00016356, 0.05314532, -0.00745755, 0.98476768, -0.78815138, 87.59900665, 1210.91101074, 39.34000015, 0.00000000
1, 2.1200, 212, 0.00618697, -0.98559719, -0.21163018, -0.72538692, 0.94611055, 0.10340971, 12.66158390, -65.75074005, 49.68334579, -0.02825163, 0.01867983, -6.08332968, 0.99859124, 0.00023754, -0.00017586, 0.05306208, -0.00586666, 0.98604113, -0.78836966, 87.59900665, 1210.91101074, 39.34000015, 0.00000000
1, 2.1300, 213, 0.00641298, -0.98614120, -0.21172392, -0.51135069, 0.91177398, 0.20750275, 12.00342369, -64.69524384, 49.18851471, -0.03325746, 0.01862435, -6.07393694, 0.99859548, 0.00028121, -0.00017768, 0.05298021, -0.00608908, 0.98669124, -0.78827596, 87.59900665, 1210.91101074, 39.34000015, 0.00000000
1, 2.1400, 214, 0.00758493, -0.98726594, -0.21279608, -0.43886459, 1.01725924, 0.08645049, 12.44219589, -67.07012177, 48.99819565, -0.03753247, 0.01996812, -6.06376362, 0.99860024, 0.00031786, -0.00019133, 0.05289156, -0.00724694, 0.98789543, -0.78720367, 87.59900665, 1210.91101074, 39.34000015, 0.00000000
1, 2.1500, 215, 0.00834175, -0.98370326, -0.21377763, -0.41985536, 0.84529912, 0.11793365, 12.44219589, -67.07012177, 48.99819565, -0.04163583, 0.02064602, -6.05520535, 0.99860412, 0.00035332, -0.00019911, 0.05281696, -0.00798829, 0.98439807, -0.78622210, 87.59900665, 1210.91101074, 39.34000015, 0.00000000
1, 2.1600, 216, 0.00886157, -0.97971630, -0.21678945, -0.36408308, 0.70935869, 0.06217011, 13.31974411, -64.60728455, 49.56915665, -0.04841748, 0.01847843, -6.11935663, 0.99857438, 0.00041331, -0.00018358, 0.05337599, -0.00850464, 0.98049659, -0.78321016, 87.59900665, 1210.91101074, 39.34000015, 0.00000000
1, 2.1700, 217, 0.00959571, -0.98251963, -0.21421698, -0.31105345, 0.84757596, 0.02975709, 12.91753292, -65.97064209, 49.81657028, -0.05143602, 0.02001666, -6.11097479, 0.99857831, 0.00043891, -0.00019836, 0.05330294, -0.00925927, 0.98339641, -0.78578252, 87.59900665, 1210.91101074, 39.34000015, 0.00000000
1, 2.1800, 218, 0.00901820, -0.98449081, -0.21543738, -0.32787487, 0.77939725, -0.00678143, 12.55188751, -66.05860138, 49.77849960, -0.05462786, 0.02177260, -6.10334444, 0.99858183, 0.00046593, -0.00021511, 0.05323643, -0.00864366, 0.98542023, -0.78456211, 87.59900665, 1210.91101074, 39.34000015, 0.00000000
1, 2.1900, 219, 0.00937293, -0.98143595, -0.21550392, -0.38451487, 0.98366231, 0.06799950, 11.93029308, -64.60728455, 49.09334946, -0.05835920, 0.02324515, -6.09355307, 0.99858642, 0.00049778, -0.00022963, 0.05315110, -0.00897480, 0.98243445, -0.78449547, 87.59900665, 1210.91101074, 39.34000015, 0.00000000
1, 2.2000, 220, 0.00968051, -0.98020595, -0.21392255, -0.20474653, 0.88157940, 0.10045994, 11.93029308, -64.60728455, 49.09334946, -0.06031343, 0.02417522, -6.08471346, 0.99859047, 0.00051439, -0.00023861, 0.05307406, -0.00926454, 0.98125017, -0.78607684, 87.59900665, 1210.91101074, 39.34000015, 0.00000000
1, 2.2100, 221, 0.00856923, -0.98339707, -0.21561906, -0.07857917, 0.62326682, 0.21769133, 12.51532650, -64.47534943, 48.92206573, -0.06029136, 0.01660698, -6.14984703, 0.99856013, 0.00051761, -0.00017294, 0.05364168, -0.00818815, 0.98445261, -0.78438032, 87.59900665, 1210.91101074, 39.34000015, 0.00000000
1, 2.2200, 222, 0.00866080, -0.98585105, -0.21455877, -0.20130885, 0.50421840, 0.09251583, 12.11311531, -66.49839020, 49.72140503, -0.06224177, 0.01680886, -6.14471054, 0.99856246, 0.00053452, -0.00017559, 0.05359691, -0.00836950, 0.98692656, -0.78544056, 87.59900665, 1210.91101074, 39.34000015, 0.00000000
1, 2.2300, 223, 0.00841806, -0.98653615, -0.21385865, 0.12648666, 0.17099307, 0.16443348, 12.95409870, -66.76226807, 50.08301544, -0.06095527, 0.01556804, -6.14268446, 0.99856347, 0.00052389, -0.00016416, 0.05357927, -0.00813799, 0.98761606, -0.78614080, 87.59900665, 1210.91101074, 39.34000015, 0.00000000
1, 2.2400, 224, 0.00609631, -0.98669779, -0.21348518, 0.20701782, -0.22908780, 0.00718411, 12.69814968, -65.35493469, 49.51205444, -0.05891819, 0.01500552, -6.14493752, 0.99856246, 0.00050640, -0.00015832, 0.05359891, -0.00583057, 0.98774135, -0.78651422, 87.59900665, 1210.91101074, 39.34000015, 0.00000000
1, 2.2500, 225, 0.00576782, -0.98494935, -0.21449158, 0.13617529, -0.24594371, -0.04568843, 12.69814968, -65.35493469, 49.51205444, -0.05758896, 0.01491299, -6.14745188, 0.99856132, 0.00049486, -0.00015690, 0.05362082, -0.00550281, 0.98596102, -0.78550780, 87.59900665, 1210.91101074, 39.34000015, 0.00000000
1, 2.2600, 226, 0.00769456, -0.98342538, -0.21461345, 0.19179122, -0.36473131, -0.10109093, 12.22280693, -65.04708099, 48.97916031, -0.03711665, 0.00879044, -6.22364521, 0.99852550, 0.00031926, -0.00009418, 0.05428481, -0.00746390, 0.98432815, -0.78538609, 87.59900665, 1210.91101074, 39.34000015, 0.00000000
1, 2.2700, 227, 0.00907230, -0.98189461, -0.21569510, 0.33458650, -0.39905763, -0.03193625, 12.47876072, -66.14656067, 49.32173538, -0.03380809, 0.00823228, -6.22764969, 0.99852359, 0.00029069, -0.00008776, 0.05431971, -0.00892698, 0.98250341, -0.78430474, 87.59900665, 1210.91101074, 39.34000015, 0.00000000
1, 2.2800, 228, 0.00867738, -0.98138463, -0.21751109, 0.19241637, -0.43334246, -0.10253528, 12.66158390, -66.89420319, 49.60721588, -0.03193375, 0.00829621, -6.23211241, 0.99852145, 0.00027433, -0.00008744, 0.05435860, -0.00853499, 0.98195350, -0.78248870, 87.59900665, 1210.91101074, 39.34000015, 0.00000000
1, 2.2900, 229, 0.01031219, -0.97992152, -0.21594432, 0.31653616, -0.52070051, 0.05345314, 12.40563011, -66.10257721, 49.28366852, -0.02882687, 0.00665711, -6.23710966, 0.99851906, 0.00024803, -0.00007169, 0.05440214, -0.01018773, 0.98044229, -0.78405553, 87.59900665, 1210.91101074, 39.34000015, 0.00000000
1, 2.3000, 230, 0.01053486, -0.98333770, -0.21759711, 0.51680100, -0.68896133, -0.05616698, 12.03998470, -66.10257721, 49.41689682, -0.02373688, 0.00572172, -6.24401665, 0.99851578, 0.00020412, -0.00006114, 0.05446234, -0.01042778, 0.98378760, -0.78240281, 87.59900665, 1210.91101074, 39.34000015, 0.00000000
1, 2.3100, 231, 0.00984651, -0.98377007, -0.21591546, 0.60763907, -0.79088795, -0.07616614, 12.03998470, -64.60728455, 49.41689682, -0.01921358, 0.00593685, -6.32369852, 0.99847770, 0.00016456, -0.00006098, 0.05515665, -0.00974755, 0.98412186, -0.78408444, 87.59900665, 1210.91101074, 39.34000015, 0.00000000
1, 2.3200, 232, 0.01141043, -0.98528498, -0.21504773, 0.42927688, -0.84318012, -0.11187637, 12.03998470, -65.75074005, 49.64528275, -0.01501603, 0.00520613, -6.33221912, 0.99847364, 0.00012833, -0.00005260, 0.05523089, -0.01131557, 0.98557186, -0.78495216, 87.59900665, 1210.91101074, 39.34000015, 0.00000000
1, 2.3300, 233, 0.00994003, -0.98445797, -0.21471940, 0.50094235, -0.80124211, -0.13387330, 12.66158390, -66.45441437, 49.56915665, -0.01009677, 0.00478917, -6.34039974, 0.99846965, 0.00008566, -0.00004660, 0.05530217, -0.00985271, 0.98466289, -0.78528059, 87.59900665, 1210.91101074, 39.34000015, 0.00000000
1, 2.3400, 234, 0.00938849, -0.98473841, -0.21485052, 0.30141547, -0.66380376, -0.05772471, 12.07655048, -65.92666626, 49.24560928, -0.00715955, 0.00392446, -6.34703588, 0.99846649, 0.00006049, -0.00003765, 0.05536000, -0.00931089, 0.98488331, -0.78514946, 87.59900665, 1210.91101074, 39.34000015, 0.00000000
1, 2.3500, 235, 0.00848064, -0.98442620, -0.21421206, 0.35422409, -0.71655923, 0.04647443, 11.93029308, -64.87116241, 48.92206573, -0.00369772, 0.00193423, -6.35398722, 0.99846309, 0.00003128, -0.00001864, 0.05542057, -0.00843754, 0.98451221, -0.78578794, 87.59900665, 1210.91101074, 39.34000015, 0.00000000
1, 2.3600, 236, 0.00731455, -0.98514706, -0.21404535, 0.21295412, -0.71510577, -0.11126755, 11.93029308, -64.87116241, 48.92206573, 0.01095974, -0.00658406, -6.43311644, 0.99842459, -0.00009227, 0.00006273, 0.05611002, -0.00732255, 0.98512995, -0.78595465, 87.59900665, 1210.91101074, 39.34000015, 0.00000000
1, 2.3700, 237, 0.00719635, -0.98457336, -0.21576557, 0.06910267, -0.69936508, -0.09291814, 11.93029308, -65.22299194, 49.22657394, 0.01157474, -0.00718038, -6.44014311, 0.99842119, -0.00009733, 0.00006824, 0.05617125, -0.00731970, 0.98437738, -0.78423446, 87.59900665, 1210.91101074, 39.34000015, 0.00000000
1, 2.3800, 238, 0.00746454, -0.98408651, -0.21545146, 0.14071029, -0.82030445, -0.00778833, 12.69814968, -66.19053650, 49.89269638, 0.01288784, -0.00886182, -6.44819117, 0.99841726, -0.00010794, 0.00008354, 0.05624137, -0.00760690, 0.98387206, -0.78454852, 87.59900665, 1210.91101074, 39.34000015, 0.00000000
1, 2.3900, 239, 0.00743943, -0.98190540, -0.21654376, 0.24881722, -0.71482438, -0.11137134, 12.47876072, -65.26697540, 49.58818436, 0.01528930, -0.00931512, -6.45544958, 0.99841362, -0.00012864, 0.00008867, 0.05630460, -0.00759565, 0.98165548, -0.78345609, 87.59900665, 1210.91101074, 39.34000015, 0.00000000
1, 2.4000, 240, 0.01061042, -0.98333752, -0.21556558, 0.32037091, -0.74914038, -0.07715515, 12.29593849, -66.89420319, 49.70237732, 0.01840951, -0.01016656, -6.46296215, 0.99840999, -0.00015540, 0.00009763, 0.05637006, -0.01078286, 0.98303533, -0.78443432, 87.59900665, 1210.91101074, 39.34000015, 0.00000000
1, 2.4100, 241, 0.01026228, -0.98329931, -0.21836902, 0.53418118, -0.73173213, 0.01044815, 12.29593849, -66.89420319, 49.70237732, 0.01930979, -0.00882359, -6.53932762, 0.99837220, -0.00016384, 0.00008649, 0.05703539, -0.01044298, 0.98293686, -0.78163087, 87.59900665, 1210.91101074, 39.34000015, 0.00000000
1, 2.4200, 242, 0.00937473, -0.98234761, -0.21766421, 0.40919876, -0.81876737, 0.02657910, 12.18624687, -65.44289398, 49.77849960, 0.02331528, -0.01084308, -6.54730654, 0.99836814, -0.00019773, 0.00010609, 0.05710491, -0.00955178, 0.98196608, -0.78233564, 87.59900665, 1210.91101074, 39.34000015, 0.00000000
1, 2.4300, 243, 0.00983535, -0.98158926, -0.21500766, 0.60533601, -0.74918187, 0.06259848, 11.93029308, -64.38739014, 49.34076691, 0.02928717, -0.01306482, -6.55455685, 0.99836457, -0.00024864, 0.00012844, 0.05716807, -0.01005318, 0.98111761, -0.78499216, 87.59900665, 1210.91101074, 39.34000015, 0.00000000
1, 2.4400, 244, 0.01142739, -0.98345912, -0.21678826, 0.52267259, -0.37211594, -0.11489248, 12.03998470, -64.34340668, 49.35980225, 0.03447141, -0.01274058, -6.55849075, 0.99836266, -0.00029397, 0.00012821, 0.05720234, -0.01165154, 0.98288858, -0.78321153, 87.59900665, 1210.91101074, 39.34000015, 0.00000000
1, 2.4500, 245, 0.00894586, -0.98272246, -0.21748699, 0.39666650, -0.37367386, -0.07938303, 12.33250427, -66.36645508, 49.62625122, 0.03838629, -0.01277344, -6.56235409, 0.99836069, -0.00032805, 0.00013046, 0.05723599, -0.00916852, 0.98207569, -0.78251278, 87.59900665, 1210.91101074, 39.34000015, 0.00000000
1, 2.4600, 246, 0.00809151, -0.98396790, -0.21661296, 0.48817813, -0.38811737, -0.20301487, 12.33250427, -66.36645508, 49.62625122, 0.04109672, -0.01751958, -6.63518667, 0.99832404, -0.00034919, 0.00017339, 0.05787050, -0.00832961, 0.98325801, -0.78338683, 87.59900665, 1210.91101074, 39.34000015, 0.00000000
1, 2.4700, 247, 0.00823216, -0.98314476, -0.21648245, 0.54240924, -0.54321641, -0.13612835, 11.78403568, -66.05860138, 48.96012878, 0.04647046, -0.01735944, -6.64084673, 0.99832118, -0.00039608, 0.00017472, 0.05791980, -0.00853186, 0.98236883, -0.78351724, 87.59900665, 1210.91101074, 39.34000015, 0.00000000
1, 2.4800, 248, 0.00888912, -0.98418880, -0.21537510, 0.29060200, -0.40739077, -0.16765888, 11.74746990, -65.22299194, 49.34076691, 0.04932518, -0.01659280, -6.64521456, 0.99831903, -0.00042133, 0.00016950, 0.05795786, -0.00917980, 0.98334503, -0.78462446, 87.59900665, 1210.91101074, 39.34000015, 0.00000000
1, 2.4900, 249, 0.01076068, -0.98504335, -0.21551462, 0.38145629, -0.45728603, -0.22172081, 11.85716152, -64.12351990, 49.45495987, 0.05308413, -0.01541816, -6.65020514, 0.99831641, -0.00045466, 0.00016119, 0.05800133, -0.01104013, 0.98413956, -0.78448492, 87.59900665, 1210.91101074, 39.34000015, 0.00000000
1, 2.5000, 250, 0.01014348, -0.98530048, -0.21524629, 0.45337135, -0.36981320, -0.29041508, 13.06379032, -65.48686981, 49.56915665, 0.05756216, -0.01336433, -6.65448570, 0.99831426, -0.00049471, 0.00014558, 0.05803863, -0.01039505, 0.98432714, -0.78475320, 87.59900665, 1210.91101074, 39.34000015, 0.00000000
1, 2.5100, 251, 0.00931064, -0.98537058, -0.21544050, 0.56156945, -0.48961154, -0.25810814, 13.06379032, -65.48686981, 49.56915665, 0.06289046, -0.01209044, -6.72952366, 0.99827594, -0.00054168, 0.00013754, 0.05869234, -0.00952931, 0.98430675, -0.78455895, 87.59900665, 1210.91101074, 39.34000015, 0.00000000
1, 2.5200, 252, 0.01035825, -0.98501825, -0.21554960, 0.52562022, -0.50733227, -0.24079236, 12.58845234, -64.47534943, 49.60721588, 0.06807873, -0.01082528, -6.73505831, 0.99827313, -0.00058752, 0.00012920, 0.05874056, -0.01055230, 0.98386526, -0.78444976, 87.59900665, 1210.91101074, 39.34000015, 0.00000000
1, 2.5300, 253, 0.00897602, -0.98335117, -0.21622966, 0.66728890, -0.52565193, -0.10098457, 12.22280693, -64.87116241, 49.34076691, 0.07469604, -0.01095834, -6.74048901, 0.99827033, -0.00064510, 0.00013378, 0.05878785, -0.00916894, 0.98209047, -0.78376955, 87.59900665, 1210.91101074, 39.34000015, 0.00000000
1, 2.5400, 254, 0.00929078, -0.98421538, -0.21524782, 0.31937432, -0.15410259, -0.09046092, 12.47876072, -65.26697540, 49.13142014, 0.07787351, -0.01040584, -6.74222708, 0.99826944, -0.00067306, 0.00013061, 0.05880300, -0.00947245, 0.98287773, -0.78475124, 87.59900665, 1210.91101074, 39.34000015, 0.00000000
1, 2.5500, 255, 0.01059808, -0.98603833, -0.21638505, 0.26458088, -0.18415880, -0.09037589, 12.44219589, -66.05860138, 50.08301544, 0.08049899, -0.00991227, -6.74424553, 0.99826843, -0.00069618, 0.00012767, 0.05882058, -0.01077087, 0.98465168, -0.78361392, 87.59900665, 1210.91101074, 39.34000015, 0.00000000
1, 2.5600, 256, 0.01076131, -0.98519909, -0.21530035, 0.15546639, -0.15213013, -0.00147713, 12.44219589, -66.05860138, 50.08301544, 0.07226389, -0.00017604, -6.81542015, 0.99823165, -0.00062941, 0.00003902, 0.05944066, -0.01089301, 0.98382199, -0.78469861, 87.59900665, 1210.91101074, 39.34000015, 0.00000000
1, 2.5700, 257, 0.01298707, -0.98831862, -0.21649837, 0.13774481, -0.25604710, 0.04912733, 12.22280693, -65.00309753, 49.39786530, 0.07362141, -0.00120324, -6.81783533, 0.99823046, -0.00064071, 0.00004868, 0.05946171, -0.01300448, 0.98704100, -0.78350079, 87.59900665, 1210.91101074, 39.34000015, 0.00000000
1, 2.5800, 258, 0.01391349, -0.98607516, -0.21677986, 0.06678353, -0.39440513, 0.08159226, 11.93029308, -64.78320312, 49.24560928, 0.07424258, -0.00284838, -6.82151794, 0.99822855, -0.00064526, 0.00006336, 0.05949378, -0.01395171, 0.98478425, -0.78321928, 87.59900665, 1210.91101074, 39.34000015, 0.00000000
1, 2.5900, 259, 0.01249562, -0.98457438, -0.21659997, -0.00196259, -0.42612138, -0.11222558, 12.51532650, -63.85964203, 49.20754623, 0.07416544, -0.00266408, -6.82592106, 0.99822617, -0.00064468, 0.00006174, 0.05953213, -0.01254788, 0.98327863, -0.78339922, 87.59900665, 1210.91101074, 39.34000015, 0.00000000
1, 2.6000, 260, 0.01297390, -0.98393971, -0.21579021, 0.03447190, -0.40782753, -0.16468737, 12.62501812, -65.53085327, 49.35980225, 0.07446101, -0.00193089, -6.83026266, 0.99822390, -0.00064764, 0.00005553, 0.05956995, -0.01301043, 0.98264122, -0.78420901, 87.59900665, 1210.91101074, 39.34000015, 0.00000000
1, 2.6100, 261, 0.01175144, -0.98257470, -0.21650146, 0.07031877, -0.45957759, -0.13072844, 12.40563011, -66.67430878, 49.89269638, 0.07525323, -0.00135829, -6.90479326, 0.99818504, -0.00065480, 0.00005138, 0.06021920, -0.01177589, 0.98127437, -0.78349775, 87.59900665, 1210.91101074, 39.34000015, 0.00000000
1, 2.6200, 262, 0.01172980, -0.98453492, -0.21396197, -0.07283749, -0.54704005, -0.09697254, 12.40563011, -66.67430878, 49.89269638, 0.07445914, -0.00158440, -6.91033983, 0.99818206, -0.00064776, 0.00005296, 0.06026751, -0.01175355, 0.98323011, -0.78603721, 87.59900665, 1210.91101074, 39.34000015, 0.00000000
1, 2.6300, 263, 0.00918435, -0.98443079, -0.21325058, -0.03563795, -0.66654158, -0.11717708, 12.51532650, -64.87116241, 49.30270386, 0.07402661, -0.00187529, -6.91709995, 0.99817848, -0.00064384, 0.00005531, 0.06032639, -0.00921589, 0.98313582, -0.78674859, 87.59900665, 1210.91101074, 39.34000015, 0.00000000
1, 2.6400, 264, 0.00953445, -0.98425043, -0.21472235, -0.14958115, -0.65649211, -0.13035040, 12.29593849, -64.95912170, 49.75947571, 0.07245637, -0.00200456, -6.92376900, 0.99817497, -0.00063009, 0.00005564, 0.06038448, -0.00957366, 0.98297143, -0.78527683, 87.59900665, 1210.91101074, 39.34000015, 0.00000000
1, 2.6500, 265, 0.00993975, -0.98666030, -0.21424291, -0.04885167, -0.45464113, -0.22803977, 12.33250427, -65.22299194, 49.79753494, 0.07190864, -0.00074844, -6.92870188, 0.99817240, -0.00062598, 0.00004444, 0.06042746, -0.00996079, 0.98539859, -0.78575629, 87.59900665, 1210.91101074, 39.34000015, 0.00000000
1, 2.6600, 266, 0.01110397, -0.98792523, -0.21414694, -0.14074583, -0.37130007, -0.12053661, 12.40563011, -66.63032532, 49.24560928, 0.07671037, -0.00080619, -7.00313187, 0.99813294, -0.00066774, 0.00004791, 0.06107578, -0.01111478, 0.98665899, -0.78585231, 87.59900665, 1210.91101074, 39.34000015, 0.00000000
1, 2.6700, 267, 0.01129505, -0.98589873, -0.21489955, -0.06794205, -0.54283822, -0.08920912, 12.40563011, -66.63032532, 49.24560928, 0.07597452, -0.00110330, -7.00861216, 0.99813002, -0.00066117, 0.00005014, 0.06112351, -0.01131127, 0.98456901, -0.78509957, 87.59900665, 1210.91101074, 39.34000015, 0.00000000
1, 2.6800, 268, 0.01149571, -0.98331565, -0.21417116, 0.16202717, -0.24998522, -0.04859931, 11.89372730, -65.22299194, 48.94110107, 0.07756753, -0.00116389, -7.01117516, 0.99812859, -0.00067502, 0.00005153, 0.06114584, -0.01151910, 0.98197079, -0.78582788, 87.59900665, 1210.91101074, 39.34000015, 0.00000000
1, 2.6900, 269, 0.01122723, -0.98012120, -0.21399735, 0.09000442, -0.16421096, -0.08173224, 11.96685791, -65.66278839, 49.07432175, 0.07843991, -0.00071948, -7.01296520, 0.99812770, -0.00068285, 0.00004813, 0.06116144, -0.01124147, 0.97875786, -0.78600168, 87.59900665, 1210.91101074, 39.34000015, 0.00000000
1, 2.7000, 270, 0.00939970, -0.98094118, -0.21593083, 0.03501353, -0.11403436, -0.02777414, 12.69814968, -65.35493469, 49.68334579, 0.07878156, -0.00069502, -7.01414204, 0.99812710, -0.00068584, 0.00004811, 0.06117169, -0.00941125, 0.97956884, -0.78406823, 87.59900665, 1210.91101074, 39.34000015, 0.00000000
1, 2.7100, 271, 0.00983307, -0.98127973, -0.21531315, -0.03880912, -0.09973675, 0.11337881, 13.06379032, -65.53085327, 49.01722336, 0.08252047, -0.00938416, -7.08526564, 0.99808884, -0.00071369, 0.00012623, 0.06179111, -0.00989239, 0.97988355, -0.78468585, 87.59900665, 1210.91101074, 39.34000015, 0.00000000
1, 2.7200, 272, 0.01010829, -0.98552376, -0.21069454, -0.21960112, 0.08782347, 0.10029691, 13.06379032, -65.53085327, 49.01722336, 0.08033388, -0.01018005, -7.08416510, 0.99808949, -0.00069422, 0.00013198, 0.06178153, -0.01028160, 0.98410308, -0.78930444, 87.59900665, 1210.91101074, 39.34000015, 0.00000000
1, 2.7300, 273, 0.01209534, -0.98934716, -0.20799263, -0.32740071, 0.19075561, 0.05005585, 12.25937271, -65.53085327, 49.22657394, 0.07708465, -0.01026529, -7.08215094, 0.99809062, -0.00066587, 0.00013096, 0.06176400, -0.01227230, 0.98798406, -0.79200643, 87.59900665, 1210.91101074, 39.34000015, 0.00000000
1, 2.7400, 274, 0.01135435, -0.98624301, -0.21031687, -0.51151216, 0.10632097, 0.12547457, 12.33250427, -66.05860138, 49.70237732, 0.07197814, -0.01125985, -7.08079338, 0.99809134, -0.00062086, 0.00013686, 0.06175217, -0.01154386, 0.98494798, -0.78968227, 87.59900665, 1210.91101074, 39.34000015, 0.00000000
1, 2.7500, 275, 0.01266800, -0.98213887, -0.21227303, -0.57874531, 0.04864798, 0.16099791, 12.44219589, -65.17901611, 49.16947937, 0.06620482, -0.01273012, -7.07990026, 0.99809194, -0.00056978, 0.00014655, 0.06174440, -0.01287677, 0.98094863, -0.78772622, 87.59900665, 1210.91101074, 39.34000015, 0.00000000
1, 2.7600, 276, 0.01451760, -0.98130858, -0.21295457, -0.38116932, 0.06792141, 0.12564193, 12.47876072, -65.61880493, 49.26464081, 0.06777956, 0.00434979, -7.15027428, 0.99805367, -0.00059270, -0.00000100, 0.06235743, -0.01467144, 0.98017144, -0.78704482, 87.59900665, 1210.91101074, 39.34000015, 0.00000000
1, 2.7700, 277, 0.01667375, -0.98334503, -0.21525323, -0.32683587, -0.01770698, 0.14125374, 12.47876072, -65.61880493, 49.26464081, 0.06450877, 0.00293218, -7.15010405, 0.99805385, -0.00056345, 0.00000956, 0.06235594, -0.01661404, 0.98220474, -0.78474605, 87.59900665, 1210.91101074, 39.34000015, 0.00000000
1, 2.7800, 278, 0.01715245, -0.98560190, -0.21277197, 0.12327477, -0.13339956, 0.08470924, 12.62501812, -65.39891052, 49.37883377, 0.06572606, 0.00182639, -7.15124416, 0.99805319, -0.00057345, 0.00001986, 0.06236586, -0.01711441, 0.98446941, -0.78722739, 87.59900665, 1210.91101074, 39.34000015, 0.00000000
1, 2.7900, 279, 0.01809970, -0.98331428, -0.21194524, 0.30474052, -0.23347655, -0.00584156, 12.66158390, -66.36645508, 49.62625122, 0.06873577, 0.00137589, -7.15357828, 0.99805194, -0.00059941, 0.00002544, 0.06238618, -0.01807541, 0.98213476, -0.78805405, 87.59900665, 1210.91101074, 39.34000015, 0.00000000
1, 2.8000, 280, 0.01889156, -0.98093617, -0.21121186, 0.27115139, -0.45645747, -0.02800497, 12.36906433, -65.79473114, 49.30270386, 0.07140554, 0.00067908, -7.15812683, 0.99804950, -0.00062229, 0.00003298, 0.06242580, -0.01887824, 0.97970235, -0.78878742, 87.59900665, 1210.91101074, 39.34000015, 0.00000000
1, 2.8100, 281, 0.01753221, -0.98293430, -0.21142565, 0.37801331, -0.45647302, 0.02440265, 12.47876072, -65.88268280, 49.35980225, 0.08164522, 0.01644984, -7.23318052, 0.99800825, -0.00072012, -0.00009832, 0.06307957, -0.01746436, 0.98162252, -0.78857350, 87.59900665, 1210.91101074, 39.34000015, 0.00000000
1, 2.8200, 282, 0.01717973, -0.98510134, -0.20962968, 0.39646745, -0.59441423, 0.07418108, 12.47876072, -65.88268280, 49.35980225, 0.08554559, 0.01445944, -7.23886156, 0.99800515, -0.00075300, -0.00007880, 0.06312904, -0.01691584, 0.98363155, -0.79036927, 87.59900665, 1210.91101074, 39.34000015, 0.00000000
1, 2.8300, 283, 0.01664671, -0.98911804, -0.20864895, 0.23666203, -0.71517670, 0.03697457, 12.51532650, -64.47534943, 49.45495987, 0.08783577, 0.01257398, -7.24579668, 0.99800134, -0.00077191, -0.00006107, 0.06318942, -0.01641142, 0.98759568, -0.79134983, 87.59900665, 1210.91101074, 39.34000015, 0.00000000
1, 2.8400, 284, 0.01720273, -0.99140769, -0.20792085, 0.14858304, -0.83537644, -0.00043962, 12.40563011, -66.71829224, 49.26464081, 0.08923189, 0.01078602, -7.25397491, 0.99799681, -0.00078309, -0.00004468, 0.06326064, -0.01700383, 0.98985165, -0.79207790, 87.59900665, 1210.91101074, 39.34000015, 0.00000000
1, 2.8500, 285, 0.01751307, -0.98960751, -0.20771995, 0.03240336, -0.75728691, -0.07699529, 12.58845234, -65.44289398, 48.97916031, 0.08946703, 0.00992187, -7.26153088, 0.99799263, -0.00078466, -0.00003697, 0.06332645, -0.01733531, 0.98804688, -0.79227877, 87.59900665, 1210.91101074, 39.34000015, 0.00000000
1, 2.8600, 286, 0.01565564, -0.98885185, -0.20905787, -0.23492645, -0.67076784, -0.25014141, 12.25937271, -65.88268280, 49.11238480, 0.10272099, 0.01807735, -7.33920479, 0.99794936, -0.00090467, -0.00010006, 0.06400297, -0.01543853, 0.98724490, -0.79094076, 87.59900665, 1210.91101074, 39.34000015, 0.00000000
1, 2.8700, 287, 0.01501541, -0.98874915, -0.21038716, -0.39667705, -0.55110490, -0.29986560, 12.25937271, -65.88268280, 49.11238480, 0.09869096, 0.01983278, -7.34518099, 0.99794596, -0.00087056, -0.00011755, 0.06405502, -0.01468096, 0.98699647, -0.78961122, 87.59900665, 1210.91101074, 39.34000015, 0.00000000
1, 2.8800, 288, 0.01231999, -0.98939162, -0.20885201, -0.64697486, -0.50018346, -0.38592073, 11.71090508, -65.26697540, 48.86497116, 0.09215499, 0.02252026, -7.35080671, 0.99794292, -0.00081515, -0.00014457, 0.06410402, -0.01194802, 0.98773813, -0.79114652, 87.59900665, 1210.91101074, 39.34000015, 0.00000000
1, 2.8900, 289, 0.00725368, -0.99073762, -0.20744011, -0.63395256, -0.17643249, -0.23852766, 12.22280693, -66.76226807, 48.92206573, 0.08579411, 0.02447657, -7.35297871, 0.99794179, -0.00076085, -0.00016515, 0.06412295, -0.00683702, 0.98919266, -0.79255855, 87.59900665, 1210.91101074, 39.34000015, 0.00000000
1, 2.9000, 290, 0.00533732, -0.98915637, -0.20701894, -0.84974003, -0.05747822, -0.27052310, 12.77127552, -66.63032532, 49.35980225, 0.07727836, 0.02699881, -7.35402298, 0.99794114, -0.00068810, -0.00019187, 0.06413203, -0.00488072, 0.98774910, -0.79297996, 87.59900665, 1210.91101074, 39.34000015, 0.00000000
1, 2.9100, 291, 0.00609473, -0.98675877, -0.20954727, -0.76539004, 0.28370178, -0.10540356, 12.95409870, -65.04708099, 49.20754623, 0.08258422, 0.01805036, -7.42185497, 0.99790311, -0.00072937, -0.00011054, 0.06472272, -0.00565035, 0.98543978, -0.79045177, 87.59900665, 1210.91101074, 39.34000015, 0.00000000
1, 2.9200, 292, 0.00990015, -0.98512948, -0.20878634, -0.66033310, 0.45492733, -0.03181199, 12.95409870, -65.04708099, 49.20754623, 0.07603521, 0.01932881, -7.41741467, 0.99790555, -0.00067305, -0.00012540, 0.06468403, -0.00956995, 0.98375797, -0.79121268, 87.59900665, 1210.91101074, 39.34000015, 0.00000000
1, 2.9300, 293, 0.01339471, -0.98068273, -0.21308543, -0.66404074, 0.48522121, 0.21493261, 12.18624687, -64.95912170, 49.11238480, 0.06945354, 0.01827077, -7.41213512, 0.99790859, -0.00061513, -0.00011993, 0.06463805, -0.01306295, 0.97943521, -0.78691375, 87.59900665, 1210.91101074, 39.34000015, 0.00000000
1, 2.9400, 294, 0.01648761, -0.98240221, -0.21331011, -0.57571930, 0.60570747, 0.23477374, 11.96685791, -64.21147156, 49.24560928, 0.06377783, 0.01727163, -7.40565491, 0.99791229, -0.00056514, -0.00011446, 0.06458160, -0.01618069, 0.98125553, -0.78668916, 87.59900665, 1210.91101074, 39.34000015, 0.00000000
1, 2.9500, 295, 0.01867071, -0.98340517, -0.21341653, -0.60957474, 0.61258626, 0.25726929, 12.18624687, -65.17901611, 49.81657028, 0.05775791, 0.01608074, -7.39905834, 0.99791610, -0.00051204, -0.00010752, 0.06452415, -0.01838471, 0.98236060, -0.78658283, 87.59900665, 1210.91101074, 39.34000015, 0.00000000
1, 2.9600, 296, 0.01885916, -0.98304713, -0.21076582, -0.41555712, 0.63048768, 0.10626295, 12.33250427, -67.24604034, 49.30270386, 0.06383976, 0.03567814, -7.46179485, 0.99788052, -0.00057619, -0.00027444, 0.06507058, -0.01849706, 0.98203892, -0.78923357, 87.59900665, 1210.91101074, 39.34000015, 0.00000000
1, 2.9700, 297, 0.01923788, -0.98632801, -0.20918524, -0.57483989, 0.37164342, 0.11888680, 12.00342369, -66.93818665, 49.03625488, 0.05812068, 0.03531270, -7.45784664, 0.99788278, -0.00052617, -0.00027452, 0.06503618, -0.01862221, 0.98527384, -0.79081404, 87.59900665, 1210.91101074, 39.34000015, 0.00000000
1, 2.9800, 298, 0.01824163, -0.98714364, -0.21061732, -0.51835608, 0.18453118, 0.04446689, 12.00342369, -66.93818665, 49.03625488, 0.05296573, 0.03527387, -7.45589066, 0.99788386, -0.00048125, -0.00027712, 0.06501913, -0.01762486, 0.98618662, -0.78938198, 87.59900665, 1210.91101074, 39.34000015, 0.00000000
1, 2.9900, 299, 0.01793181, -0.98488420, -0.21112756, -0.42439833, -0.01773317, -0.13585602, 11.74746990, -65.66278839, 48.96012878, 0.04872177, 0.03656588, -7.45631266, 0.99788374, -0.00044503, -0.00029078, 0.06502280, -0.01730421, 0.98400772, -0.78887188, 87.59900665, 1210.91101074, 39.34000015, 0.00000000
1, 3.0000, 300, 0.01529055, -0.98378271, -0.21191773, -0.26069167, -0.08307225, -0.26077875, 12.51532650, -65.48686981, 49.64528275, 0.04609141, 0.03893357, -7.45766068, 0.99788284, -0.00042347, -0.00031288, 0.06503454, -0.01462425, 0.98296452, -0.78808171, 87.59900665, 1210.91101074, 39.34000015, 0.00000000
1, 3.0100, 301, 0.01201837, -0.98205394, -0.21246414, -0.33139411, -0.16911232, -0.27994964, 12.55188751, -67.24604034, 49.15044403, 0.06609435, 0.03428775, -7.52823353, 0.99784255, -0.00059518, -0.00026071, 0.06564912, -0.01134222, 0.98118603, -0.78753519, 87.59900665, 1210.91101074, 39.34000015, 0.00000000
1, 3.0200, 302, 0.00837271, -0.98150086, -0.21422303, -0.45809504, -0.06746700, -0.25984666, 12.44219589, -65.79473114, 49.11238480, 0.06150781, 0.03668386, -7.52939034, 0.99784195, -0.00055662, -0.00028419, 0.06565920, -0.00775189, 0.98039967, -0.78577614, 87.59900665, 1210.91101074, 39.34000015, 0.00000000
1, 3.0300, 303, 0.00534984, -0.98253196, -0.21349423, -0.40362674, 0.02043821, -0.36363515, 12.44219589, -65.79473114, 49.11238480, 0.05746751, 0.04027771, -7.52993441, 0.99784160, -0.00052350, -0.00031780, 0.06566393, -0.00466935, 0.98150206, -0.78650504, 87.59900665, 1210.91101074, 39.34000015, 0.00000000
1, 3.0400, 304, 0.00519999, -0.98438174, -0.21427833, -0.43980223, 0.05446238, -0.36280909, 12.69814968, -64.73921967, 48.94110107, 0.05307784, 0.04393650, -7.53012800, 0.99784160, -0.00048737, -0.00035217, 0.06566563, -0.00445669, 0.98342466, -0.78572094, 87.59900665, 1210.91101074, 39.34000015, 0.00000000
1, 3.0500, 305, 0.00457707, -0.98326862, -0.21587712, -0.12283517, 0.11085855, -0.18269047, 12.40563011, -65.70676422, 49.34076691, 0.05184508, 0.04595620, -7.52942705, 0.99784195, -0.00047779, -0.00037047, 0.06565953, -0.00378683, 0.98236251, -0.78412211, 87.59900665, 1210.91101074, 39.34000015, 0.00000000
1, 3.0600, 306, 0.00771450, -0.98200196, -0.21595685, -0.16308175, 0.30481526, -0.19194816, 12.51532650, -66.63032532, 49.03625488, 0.03655271, 0.03583053, -7.59399223, 0.99780488, -0.00033899, -0.00029087, 0.06622165, -0.00693904, 0.98117781, -0.78404248, 87.59900665, 1210.91101074, 39.34000015, 0.00000000
1, 3.0700, 307, 0.00719118, -0.98002243, -0.21631759, 0.04836810, 0.52748376, -0.06486574, 12.36906433, -65.79473114, 48.54142380, 0.03709222, 0.03758744, -7.58899069, 0.99780774, -0.00034469, -0.00030587, 0.06617811, -0.00654756, 0.97937745, -0.78368199, 87.59900665, 1210.91101074, 39.34000015, 0.00000000
1, 3.0800, 308, 0.00864219, -0.98129404, -0.21354170, 0.20711717, 0.62966067, 0.05984484, 12.36906433, -65.79473114, 48.54142380, 0.03924304, 0.03836182, -7.58272409, 0.99781132, -0.00036385, -0.00031139, 0.06612355, -0.00797342, 0.98062229, -0.78645790, 87.59900665, 1210.91101074, 39.34000015, 0.00000000
1, 3.0900, 309, 0.01038796, -0.97998375, -0.21382092, 0.26108447, 0.66496140, 0.02526522, 12.40563011, -64.56330872, 48.96012878, 0.04193205, 0.03954245, -7.57621241, 0.99781513, -0.00038792, -0.00032014, 0.06606687, -0.00970379, 0.97926915, -0.78617859, 87.59900665, 1210.91101074, 39.34000015, 0.00000000
1, 3.1000, 310, 0.00962385, -0.98004013, -0.21484503, 0.31262147, 0.94011426, 0.01331398, 12.69814968, -66.01461792, 48.99819565, 0.04517277, 0.04142716, -7.56703424, 0.99782038, -0.00041720, -0.00033472, 0.06598696, -0.00891549, 0.97927141, -0.78515446, 87.59900665, 1210.91101074, 39.34000015, 0.00000000
1, 3.1100, 311, 0.00928803, -0.98167342, -0.21599884, 0.22488736, 0.88967186, -0.09294789, 12.44219589, -65.79473114, 48.76980972, 0.04915753, 0.04285426, -7.62726355, 0.99778557, -0.00045290, -0.00034461, 0.06651142, -0.00854173, 0.98085201, -0.78400052, 87.59900665, 1210.91101074, 39.34000015, 0.00000000
1, 3.1200, 312, 0.01002048, -0.98344415, -0.21514201, 0.22459106, 0.97600889, -0.12628852, 12.73470974, -67.59787750, 48.88399887, 0.05150585, 0.04618048, -7.61802578, 0.99779093, -0.00047525, -0.00037225, 0.06643102, -0.00923283, 0.98256254, -0.78485727, 87.59900665, 1210.91101074, 39.34000015, 0.00000000
1, 3.1300, 313, 0.01020807, -0.98601633, -0.21423535, 0.24364908, 0.96014291, -0.19699357, 12.73470974, -67.59787750, 48.88399887, 0.05405188, 0.05017162, -7.60908794, 0.99779606, -0.00049970, -0.00040557, 0.06635320, -0.00935995, 0.98509115, -0.78576386, 87.59900665, 1210.91101074, 39.34000015, 0.00000000
1, 3.1400, 314, 0.00884108, -0.98743266, -0.21462965, 0.27701709, 0.99215090, -0.03821797, 12.29593849, -64.95912170, 49.28366852, 0.05693886, 0.05267131, -7.59952021, 0.99780154, -0.00052625, -0.00042570, 0.06626991, -0.00793950, 0.98646247, -0.78536940, 87.59900665, 1210.91101074, 39.34000015, 0.00000000
1, 3.1500, 315, 0.00947263, -0.98730540, -0.21634489, 0.11425909, 1.24932253, -0.10262646, 12.47876072, -66.23451233, 49.47399139, 0.05822200, 0.05634531, -7.58755493, 0.99780846, -0.00053950, -0.00045701, 0.06616575, -0.00851184, 0.98629570, -0.78365421, 87.59900665, 1210.91101074, 39.34000015, 0.00000000
1, 3.1600, 316, 0.00998713, -0.98455256, -0.21644261, 0.20485449, 1.14710939, -0.10505261, 13.17348671, -65.13504028, 49.16947937, 0.05708737, 0.05841583, -7.64598179, 0.99777460, -0.00053106, -0.00047542, 0.06667450, -0.00897164, 0.98352551, -0.78355634, 87.59900665, 1210.91101074, 39.34000015, 0.00000000
1, 3.1700, 317, 0.00939206, -0.98379010, -0.21702823, 0.09853134, 1.06107438, -0.14169264, 12.25937271, -65.92666626, 49.53108597, 0.05819052, 0.06208164, -7.63593721, 0.99778044, -0.00054276, -0.00050675, 0.06658706, -0.00833494, 0.98278254, -0.78297073, 87.59900665, 1210.91101074, 39.34000015, 0.00000000
1, 3.1800, 318, 0.00839206, -0.98360354, -0.21623784, 0.15156101, 1.19929206, -0.17410566, 12.66158390, -66.10257721, 49.55012131, 0.05984948, 0.06635182, -7.62460947, 0.99778688, -0.00055963, -0.00054302, 0.06648844, -0.00726152, 0.98256475, -0.78376096, 87.59900665, 1210.91101074, 39.34000015, 0.00000000
1, 3.1900, 319, 0.00950957, -0.98367447, -0.21650305, 0.33097929, 1.27016938, -0.22589953, 12.66158390, -66.10257721, 49.55012131, 0.06330467, 0.07127698, -7.61272907, 0.99779379, -0.00059251, -0.00058396, 0.06638503, -0.00830114, 0.98259032, -0.78349560, 87.59900665, 1210.91101074, 39.34000015, 0.00000000
1, 3.2000, 320, 0.00945671, -0.98381531, -0.21730462, 0.16932011, 1.16455376, -0.13973373, 12.51532650, -65.26697540, 49.03625488, 0.06514363, 0.07513995, -7.60164881, 0.99780011, -0.00061070, -0.00061659, 0.06628859, -0.00817189, 0.98269045, -0.78269386, 87.59900665, 1210.91101074, 39.34000015, 0.00000000
1, 3.2100, 321, 0.01166183, -0.98549861, -0.21873873, 0.45662424, 1.14993858, -0.15849841, 12.03998470, -64.69524384, 49.16947937, 0.06406557, 0.08127481, -7.66068888, 0.99776578, -0.00060521, -0.00067032, 0.06680268, -0.01029835, 0.98433554, -0.78125966, 87.59900665, 1210.91101074, 39.34000015, 0.00000000
1, 3.2200, 322, 0.01204500, -0.98238522, -0.21861993, 0.32765403, 1.23156536, 0.03697367, 11.82060146, -65.66278839, 49.24560928, 0.06749389, 0.08356164, -7.64861679, 0.99777287, -0.00063632, -0.00068830, 0.06669760, -0.01059961, 0.98123008, -0.78137839, 87.59900665, 1210.91101074, 39.34000015, 0.00000000
1, 3.2300, 323, 0.01136039, -0.98385119, -0.21909943, 0.23772138, 1.12651300, 0.12293180, 11.74746990, -65.00309753, 49.28366852, 0.07000370, 0.08477537, -7.63738012, 0.99777937, -0.00065881, -0.00069748, 0.06659979, -0.00988847, 0.98264498, -0.78089881, 87.59900665, 1210.91101074, 39.34000015, 0.00000000
1, 3.2400, 324, 0.01098933, -0.98391896, -0.21901166, 0.07730723, 1.12639284, 0.05310690, 11.74746990, -65.00309753, 49.28366852, 0.07092118, 0.08667246, -7.62627172, 0.99778581, -0.00066783, -0.00071353, 0.06650308, -0.00948955, 0.98268437, -0.78098643, 87.59900665, 1210.91101074, 39.34000015, 0.00000000
1, 3.2500, 325, 0.00899668, -0.98353189, -0.21832298, 0.04170275, 1.17842948, 0.00157494, 12.03998470, -66.36645508, 49.35980225, 0.07149505, 0.08918313, -7.61476946, 0.99779236, -0.00067421, -0.00073512, 0.06640293, -0.00745399, 0.98228836, -0.78167510, 87.59900665, 1210.91101074, 39.34000015, 0.00000000
1, 3.2600, 326, 0.00846530, -0.98304760, -0.21860223, -0.24474980, 1.07268858, 0.03538496, 12.36906433, -64.87116241, 49.60721588, 0.05976618, 0.08574921, -7.67396688, 0.99775815, -0.00057046, -0.00071172, 0.06691829, -0.00691245, 0.98186260, -0.78139585, 87.59900665, 1210.91101074, 39.34000015, 0.00000000
1, 3.2700, 327, 0.00909729, -0.98207211, -0.22194208, -0.26155502, 1.05654132, -0.03521628, 12.95409870, -66.01461792, 49.11238480, 0.05728348, 0.08835483, -7.66367817, 0.99776411, -0.00055030, -0.00073591, 0.06682870, -0.00757630, 0.98105681, -0.77805626, 87.59900665, 1210.91101074, 39.34000015, 0.00000000
1, 3.2800, 328, 0.00721182, -0.98272383, -0.22101353, -0.24456097, 1.15959859, -0.03310166, 12.40563011, -64.91514587, 48.92206573, 0.05499112, 0.09116333, -7.65239716, 0.99777067, -0.00053191, -0.00076175, 0.06673047, -0.00563896, 0.98174942, -0.77898479, 87.59900665, 1210.91101074, 39.34000015, 0.00000000
1, 3.2900, 329, 0.00826045, -0.98268342, -0.22066334, -0.08256825, 1.04022253, -0.00095047, 12.40563011, -64.91514587, 48.92206573, 0.05429505, 0.09340388, -7.64224482, 0.99777651, -0.00052708, -0.00078171, 0.06664208, -0.00664421, 0.98173368, -0.77933490, 87.59900665, 1210.91101074, 39.34000015, 0.00000000
1, 3.3000, 330, 0.00922968, -0.98421967, -0.21897151, -0.15237062, 0.98992062, -0.10726425, 12.55188751, -64.47534943, 48.94110107, 0.05289728, 0.09657199, -7.63278151, 0.99778199, -0.00051668, -0.00081016, 0.06655968, -0.00756719, 0.98328739, -0.78102672, 87.59900665, 1210.91101074, 39.34000015, 0.00000000
1, 3.3100, 331, 0.00940439, -0.98704070, -0.21972826, -0.00947311, 1.02506518, -0.08938430, 13.13692093, -66.67430878, 49.32173538, 0.04407021, 0.09128752, -7.69089127, 0.99774820, -0.00043715, -0.00076905, 0.06706557, -0.00772287, 0.98615664, -0.78026998, 87.59900665, 1210.91101074, 39.34000015, 0.00000000
1, 3.3200, 332, 0.00889263, -0.98424989, -0.21931385, -0.10013863, 1.16187048, -0.10380901, 12.58845234, -65.13504028, 49.20754623, 0.04322160, 0.09479992, -7.67975283, 0.99775469, -0.00043173, -0.00080017, 0.06696859, -0.00726386, 0.98349112, -0.78068453, 87.59900665, 1210.91101074, 39.34000015, 0.00000000
1, 3.3300, 333, 0.01031519, -0.98435593, -0.21899138, -0.13818417, 1.15901005, 0.05445201, 12.58845234, -66.14656067, 49.20754623, 0.04198526, 0.09675624, -7.66830301, 0.99776137, -0.00042203, -0.00081797, 0.06686889, -0.00863629, 0.98361313, -0.78100693, 87.59900665, 1210.91101074, 39.34000015, 0.00000000
1, 3.3400, 334, 0.01053517, -0.98327917, -0.22138122, -0.15689710, 1.24463332, 0.05630936, 12.58845234, -66.14656067, 49.20754623, 0.04056831, 0.09888142, -7.65601110, 0.99776852, -0.00041084, -0.00083734, 0.06676186, -0.00882054, 0.98256499, -0.77861708, 87.59900665, 1210.91101074, 39.34000015, 0.00000000
1, 3.3500, 335, 0.01295346, -0.98383105, -0.22086646, -0.26552138, 1.03451741, 0.26316407, 12.77127552, -65.66278839, 48.90303040, 0.03805890, 0.09853829, -7.64531183, 0.99777472, -0.00038872, -0.00083585, 0.06666868, -0.01123023, 0.98314643, -0.77913183, 87.59900665, 1210.91101074, 39.34000015, 0.00000000
1, 3.3600, 336, 0.01286349, -0.98719025, -0.21861465, -0.33665517, 0.86128050, 0.33005285, 12.77127552, -64.51932526, 49.07432175, 0.03007806, 0.10253017, -7.70620728, 0.99773914, -0.00032201, -0.00087508, 0.06719884, -0.01113925, 0.98657894, -0.78138369, 87.59900665, 1210.91101074, 39.34000015, 0.00000000
1, 3.3700, 337, 0.01465583, -0.98845494, -0.21595806, -0.45886213, 0.60415047, 0.25470772, 12.29593849, -64.60728455, 49.22657394, 0.02557237, 0.10133772, -7.69971085, 0.99774301, -0.00028203, -0.00086736, 0.06714225, -0.01288074, 0.98797643, -0.78404021, 87.59900665, 1210.91101074, 39.34000015, 0.00000000
1, 3.3800, 338, 0.01471380, -0.98827308, -0.21583305, -0.54889762, 0.42962688, 0.39194044, 12.73470974, -65.97064209, 49.35980225, 0.02015058, 0.09843495, -7.69461632, 0.99774599, -0.00023309, -0.00084527, 0.06709784, -0.01297897, 0.98788750, -0.78416538, 87.59900665, 1210.91101074, 39.34000015, 0.00000000
1, 3.3900, 339, 0.01469326, -0.98765761, -0.21819803, -0.56317019, 0.24309815, 0.24743620, 12.73470974, -65.97064209, 49.35980225, 0.01455901, 0.09654278, -7.69164705, 0.99774778, -0.00018327, -0.00083208, 0.06707194, -0.01299901, 0.98736501, -0.78180051, 87.59900665, 1210.91101074, 39.34000015, 0.00000000
1, 3.4000, 340, 0.01434386, -0.98572892, -0.21708035, -0.72281927, 0.10518286, 0.20986858, 12.77127552, -64.16749573, 49.43593216, 0.00735395, 0.09472629, -7.69008446, 0.99774873, -0.00011946, -0.00082048, 0.06705830, -0.01268356, 0.98555267, -0.78291833, 87.59900665, 1210.91101074, 39.34000015, 0.00000000
1, 3.4100, 341, 0.01371836, -0.98527974, -0.21714552, -0.75439847, -0.15009774, 0.06397180, 12.36906433, -64.87116241, 49.15044403, -0.00634389, 0.10115904, -7.76207209, 0.99770641, -0.00000452, -0.00088450, 0.06768498, -0.01204253, 0.98526770, -0.78285313, 87.59900665, 1210.91101074, 39.34000015, 0.00000000
1, 3.4200, 342, 0.01245753, -0.98402822, -0.22041176, -0.77179629, 0.00642896, -0.07331069, 12.58845234, -64.73921967, 49.53108597, -0.01406094, 0.10188670, -7.76207542, 0.99770641, 0.00006224, -0.00089540, 0.06768495, -0.01068552, 0.98422199, -0.77958673, 87.59900665, 1210.91101074, 39.34000015, 0.00000000
1, 3.4300, 343, 0.01029391, -0.98307782, -0.21885939, -0.71739888, -1.00277221, -0.08096090, 12.80784130, -66.01461792, 49.39786530, -0.02136296, 0.10051508, -7.77195692, 0.99770057, 0.00012655, -0.00088778, 0.06777093, -0.00853203, 0.98340172, -0.78113902, 87.59900665, 1210.91101074, 39.34000015, 0.00000000
1, 3.4400, 344, 0.00762317, -0.98175436, -0.22023287, -0.98658270, -0.90110624, -0.13073479, 12.80784130, -66.01461792, 49.39786530, -0.03134779, 0.09984793, -7.78091574, 0.99769521, 0.00021381, -0.00088789, 0.06784885, -0.00587856, 0.98223066, -0.77976549, 87.59900665, 1210.91101074, 39.34000015, 0.00000000
1, 3.4500, 345, 0.00707521, -0.97982609, -0.22124040, -0.66397059, -0.88142103, -0.13130806, 12.40563011, -66.41043091, 49.60721588, -0.03809891, 0.09922505, -7.78973675, 0.99768996, 0.00027289, -0.00088649, 0.06792560, -0.00534076, 0.98044610, -0.77875793, 87.59900665, 1210.91101074, 39.34000015, 0.00000000
1, 3.4600, 346, 0.00636579, -0.97781879, -0.22160298, -0.61081702, -0.86441934, -0.09595666, 12.62501812, -65.53085327, 49.20754623, -0.05715386, 0.08867292, -7.86702490, 0.99764401, 0.00044450, -0.00080621, 0.06859840, -0.00468268, 0.97860950, -0.77839530, 87.59900665, 1210.91101074, 39.34000015, 0.00000000
1, 3.4700, 347, 0.00514057, -0.97859812, -0.22165272, -0.68491977, -0.71175343, -0.02220707, 13.75851536, -67.02614594, 49.39786530, -0.06409588, 0.08734625, -7.87394142, 0.99763978, 0.00050569, -0.00079884, 0.06865856, -0.00360639, 0.97967255, -0.77834558, 87.59900665, 1210.91101074, 39.34000015, 0.00000000
1, 3.4800, 348, 0.00659103, -0.98147631, -0.21947296, -0.65205806, -0.48963210, 0.05267543, 12.77127552, -65.70676422, 49.30270386, -0.07067148, 0.08578165, -7.87852859, 0.99763703, 0.00056384, -0.00078919, 0.06869847, -0.00508255, 0.98266721, -0.78052521, 87.59900665, 1210.91101074, 39.34000015, 0.00000000
1, 3.4900, 349, 0.01007002, -0.98614407, -0.21596082, -0.83268881, -0.56194246, 0.19233438, 12.66158390, -65.57482910, 49.49302673, -0.07906444, 0.08268952, -7.88350248, 0.99763399, 0.00063873, -0.00076732, 0.06874173, -0.00860678, 0.98747343, -0.78403723, 87.59900665, 1210.91101074, 39.34000015, 0.00000000
1, 3.5000, 350, 0.01024564, -0.99094069, -0.21316259, -0.92695940, -0.32537258, 0.37337950, 12.66158390, -65.57482910, 49.49302673, -0.08837437, 0.07833432, -7.88576937, 0.99763262, 0.00072238, -0.00073501, 0.06876144, -0.00884676, 0.99241740, -0.78683537, 87.59900665, 1210.91101074, 39.34000015, 0.00000000
1, 3.5100, 351, 0.01232945, -0.98931587, -0.21374355, -1.07070816, -0.24016112, 0.34045422, 12.36906433, -64.47534943, 48.99819565, -0.09389459, 0.07659567, -7.95768547, 0.99758923, 0.00077103, -0.00072367, 0.06938750, -0.01099795, 0.99095023, -0.78625429, 87.59900665, 1210.91101074, 39.34000015, 0.00000000
1, 3.5200, 352, 0.01167305, -0.98260677, -0.21450260, -1.26860785, -0.51987821, 0.56369710, 12.29593849, -64.34340668, 49.11238480, -0.10663153, 0.06996366, -7.96139240, 0.99758697, 0.00088591, -0.00067367, 0.06941974, -0.01040320, 0.98438555, -0.78549504, 87.59900665, 1210.91101074, 39.34000015, 0.00000000
1, 3.5300, 353, 0.01461793, -0.97834277, -0.21933204, -1.24904895, -0.48313951, 0.42378312, 12.91753292, -65.88268280, 49.01722336, -0.11916399, 0.06477164, -7.96505165, 0.99758464, 0.00099813, -0.00063610, 0.06945158, -0.01345399, 0.98034918, -0.78066528, 87.59900665, 1210.91101074, 39.34000015, 0.00000000
1, 3.5400, 354, 0.01485587, -0.97826797, -0.22197500, -1.08893096, -0.39668256, 0.46026745, 12.80784130, -65.48686981, 49.20754623, -0.13008666, 0.05941416, -7.96779394, 0.99758297, 0.00109645, -0.00059610, 0.06947544, -0.01378393, 0.98046499, -0.77802199, 87.59900665, 1210.91101074, 39.34000015, 0.00000000
1, 3.5500, 355, 0.01665600, -0.97902077, -0.22482219, -0.81548476, -0.56266147, 0.24500154, 12.80784130, -65.48686981, 49.20754623, -0.13830814, 0.05579742, -7.97266483, 0.99757987, 0.00117020, -0.00056965, 0.06951784, -0.01566171, 0.98139036, -0.77517450, 87.59900665, 1210.91101074, 39.34000015, 0.00000000
1, 3.5600, 356, 0.01398777, -0.97961187, -0.22657861, -0.38528317, -0.54213220, 0.24411675, 12.91753292, -66.05860138, 48.86497116, -0.16219521, 0.05704948, -8.04622364, 0.99753475, 0.00137700, -0.00059593, 0.07015806, -0.01302928, 0.98215866, -0.77341771, 87.59900665, 1210.91101074, 39.34000015, 0.00000000
1, 3.5700, 357, 0.01206407, -0.97986978, -0.22552457, -0.20421615, -0.62534308, 0.17150012, 12.80784130, -65.53085327, 49.45495987, -0.16430882, 0.05401006, -8.05193138, 0.99753135, 0.00139723, -0.00057083, 0.07020777, -0.01110314, 0.98272842, -0.77447087, 87.59900665, 1210.91101074, 39.34000015, 0.00000000
1, 3.5800, 358, 0.01060311, -0.98021764, -0.22412768, -0.24117321, -0.50555497, 0.17413165, 12.47876072, -65.09105682, 48.88399887, -0.16677156, 0.05121018, -8.05646229, 0.99752843, 0.00142037, -0.00054802, 0.07024723, -0.00969142, 0.98311055, -0.77586770, 87.59900665, 1210.91101074, 39.34000015, 0.00000000
1, 3.5900, 359, 0.00832844, -0.98141557, -0.22373036, -0.31052303, -0.65934652, 0.10079727, 12.40563011, -64.56330872, 49.05529022, -0.16993847, 0.04878885, -8.06263256, 0.99752462, 0.00144939, -0.00052897, 0.07030097, -0.00746172, 0.98435843, -0.77626491, 87.59900665, 1210.91101074, 39.34000015, 0.00000000
1, 3.6000, 360, 0.00980083, -0.98383951, -0.22133172, -0.29273149, -0.59002167, 0.06704369, 12.40563011, -64.56330872, 49.05529022, -0.17294165, 0.04685032, -8.06820774, 0.99752128, 0.00147670, -0.00051401, 0.07034951, -0.00897109, 0.98683947, -0.77866340, 87.59900665, 1210.91101074, 39.34000015, 0.00000000
1, 3.6100, 361, 0.01300376, -0.98309875, -0.22086066, -0.41847882, -0.53926158, 0.05091733, 12.95409870, -64.69524384, 49.45495987, -0.18671918, 0.04870139, -8.14380550, 0.99747443, 0.00159514, -0.00053963, 0.07100749, -0.01218780, 0.98620814, -0.77913415, 87.59900665, 1210.91101074, 39.34000015, 0.00000000
1, 3.6200, 362, 0.01305556, -0.98270881, -0.22039577, -0.36556798, -0.52254641, 0.10384175, 12.66158390, -66.41043091, 49.66431046, -0.19043729, 0.04655327, -8.14862728, 0.99747133, 0.00162881, -0.00052330, 0.07104948, -0.01222906, 0.98600233, -0.77959853, 87.59900665, 1210.91101074, 39.34000015, 0.00000000
1, 3.6300, 363, 0.01170476, -0.98292840, -0.22127362, -0.43775782, -0.71436858, 0.25823462, 12.51532650, -65.88268280, 49.41689682, -0.19488534, 0.04246546, -8.15499401, 0.99746734, 0.00167004, -0.00049057, 0.07110494, -0.01093333, 0.98629946, -0.77872044, 87.59900665, 1210.91101074, 39.34000015, 0.00000000
1, 3.6400, 364, 0.01063197, -0.98462480, -0.22298977, -0.58202428, -0.73379302, 0.32858089, 12.62501812, -65.00309753, 49.30270386, -0.20078006, 0.03765690, -8.16136837, 0.99746335, 0.00172431, -0.00045247, 0.07116047, -0.00994141, 0.98807681, -0.77700406, 87.59900665, 1210.91101074, 39.34000015, 0.00000000
1, 3.6500, 365, 0.01083915, -0.98618221, -0.22262944, -0.77759033, -0.78536618, 0.24020347, 12.62501812, -65.00309753, 49.30270386, -0.20864297, 0.03360143, -8.16842079, 0.99745882, 0.00179524, -0.00042216, 0.07122189, -0.01023100, 0.98977387, -0.77736396, 87.59900665, 1210.91101074, 39.34000015, 0.00000000
1, 3.6600, 366, 0.00819189, -0.98437011, -0.22402993, -0.74422204, -0.75335813, 0.39897910, 12.14968109, -64.56330872, 49.11238480, -0.22628953, 0.02578713, -8.24447346, 0.99741113, 0.00195346, -0.00036641, 0.07188395, -0.00767903, 0.98813403, -0.77596283, 87.59900665, 1210.91101074, 39.34000015, 0.00000000
1, 3.6700, 367, 0.00790649, -0.98388511, -0.22412190, -0.47693300, -0.47756067, 0.28558102, 12.18624687, -64.60728455, 49.24560928, -0.23111199, 0.02195475, -8.24845314, 0.99740845, 0.00199783, -0.00033614, 0.07191864, -0.00750688, 0.98789936, -0.77586997, 87.59900665, 1210.91101074, 39.34000015, 0.00000000
1, 3.6800, 368, 0.00843916, -0.98433560, -0.22405776, -0.08497410, -0.08042251, 0.15677427, 13.28317833, -65.83870697, 49.28366852, -0.23196286, 0.02025179, -8.24887848, 0.99740815, 0.00200630, -0.00032186, 0.07192236, -0.00807282, 0.98837185, -0.77593404, 87.59900665, 1210.91101074, 39.34000015, 0.00000000
1, 3.6900, 369, 0.00917911, -0.98313695, -0.22594874, 0.11266688, 0.14697661, -0.01483283, 12.36906433, -65.26697540, 49.22657394, -0.23082472, 0.02071576, -8.24748516, 0.99740911, 0.00199611, -0.00032516, 0.07191023, -0.00882432, 0.98717386, -0.77404308, 87.59900665, 1210.91101074, 39.34000015, 0.00000000
1, 3.7000, 370, 0.01112008, -0.98221397, -0.22662859, 0.11185298, 0.12867761, 0.05509818, 12.36906433, -65.26697540, 49.22657394, -0.22968653, 0.02046452, -8.24613476, 0.99740994, 0.00198636, -0.00032224, 0.07189848, -0.01076105, 0.98623025, -0.77336329, 87.59900665, 1210.91101074, 39.34000015, 0.00000000
1, 3.7100, 371, 0.01145877, -0.98265159, -0.22561267, 0.07503609, 0.17928147, 0.09143136, 13.17348671, -65.00309753, 48.76980972, -0.24599732, 0.02306268, -8.31445694, 0.99736667, 0.00212649, -0.00035635, 0.07249305, -0.01109283, 0.98673034, -0.77437890, 87.59900665, 1210.91101074, 39.34000015, 0.00000000
1, 3.7200, 372, 0.01299475, -0.97799492, -0.22562404, 0.11003178, 0.24788737, 0.11034495, 12.25937271, -66.27849579, 48.97916031, -0.24485463, 0.02252882, -8.31180096, 0.99736840, 0.00211689, -0.00035094, 0.07246995, -0.01259675, 0.98227519, -0.77436674, 87.59900665, 1210.91101074, 39.34000015, 0.00000000
1, 3.7300, 373, 0.01152509, -0.97968227, -0.22435991, -0.05279119, 0.29693335, 0.18218748, 12.51532650, -66.19053650, 48.42723465, -0.24534744, 0.02139938, -8.30850410, 0.99737036, 0.00212190, -0.00034136, 0.07244128, -0.01114437, 0.98396313, -0.77563083, 87.59900665, 1210.91101074, 39.34000015, 0.00000000
1, 3.7400, 374, 0.01237845, -0.98057777, -0.22478777, -0.19517127, 0.36642480, 0.06103600, 12.25937271, -65.09105682, 48.99819565, -0.24726301, 0.02160488, -8.30476284, 0.99737275, 0.00213846, -0.00034429, 0.07240871, -0.01200297, 0.98488432, -0.77520287, 87.59900665, 1210.91101074, 39.34000015, 0.00000000
1, 3.7500, 375, 0.01399968, -0.98273289, -0.22583164, -0.19471869, 0.26293504, 0.09401551, 12.25937271, -65.09105682, 48.90303040, -0.24917160, 0.02127195, -8.30197811, 0.99737442, 0.00215529, -0.00034254, 0.07238447, -0.01362605, 0.98707205, -0.77415884, 87.59900665, 1210.91101074, 39.34000015, 0.00000000
1, 3.7600, 376, 0.01419468, -0.98274392, -0.22690649, -0.15696436, 0.10941457, 0.05551577, 12.36906433, -67.68582916, 48.90303040, -0.29355422, 0.03718464, -8.36766624, 0.99733198, 0.00253124, -0.00051053, 0.07295570, -0.01375702, 0.98729235, -0.77308303, 87.59900665, 1210.91101074, 39.34000015, 0.00000000
1, 3.7700, 377, 0.01422795, -0.98081970, -0.22710772, -0.18499330, 0.19168937, 0.04442218, 12.47876072, -66.49839020, 49.43593216, -0.29538664, 0.03717419, -8.36566448, 0.99733317, 0.00254720, -0.00051156, 0.07293826, -0.01358219, 0.98597503, -0.77287889, 87.59900665, 1210.91101074, 39.34000015, 0.00000000
1, 3.7800, 378, 0.01260953, -0.98020202, -0.22718249, 0.07559533, -0.02222453, 0.01797874, 12.44219589, -65.26697540, 48.48432922, -0.29462585, 0.03694912, -8.36584568, 0.99733305, 0.00254072, -0.00050912, 0.07293984, -0.01196434, 0.98534912, -0.77280402, 87.59900665, 1210.91101074, 39.34000015, 0.00000000
1, 3.7900, 379, 0.01128399, -0.98024356, -0.22772034, -0.01153470, 0.04940828, -0.20876670, 13.13692093, -66.98216248, 48.59851837, -0.29475057, 0.03908855, -8.36583424, 0.99733305, 0.00254045, -0.00052782, 0.07293970, -0.01061490, 0.98538828, -0.77226621, 87.59900665, 1210.91101074, 39.34000015, 0.00000000
1, 3.8000, 380, 0.01108892, -0.97907132, -0.22879095, 0.11251002, 0.23936014, -0.22273107, 12.80784130, -66.67430878, 48.73174286, -0.29359618, 0.04178996, -8.36401081, 0.99733424, 0.00252869, -0.00055056, 0.07292378, -0.01037879, 0.98420310, -0.77119565, 87.59900665, 1210.91101074, 39.34000015, 0.00000000
1, 3.8100, 381, 0.01247583, -0.97934371, -0.22760856, 0.27313405, 0.13570379, -0.10235365, 12.80784130, -66.67430878, 48.73174286, -0.31365028, 0.05271241, -8.43067741, 0.99729115, 0.00269589, -0.00065995, 0.07350362, -0.01168523, 0.98454326, -0.77237761, 87.59900665, 1210.91101074, 39.34000015, 0.00000000
1, 3.8200, 382, 0.01240803, -0.97727948, -0.22710221, 0.45187849, 0.11909825, -0.05051475, 12.95409870, -66.14656067, 48.88399887, -0.30911025, 0.05346531, -8.42967510, 0.99729192, 0.00265590, -0.00066357, 0.07349491, -0.01148039, 0.98269594, -0.77288270, 87.59900665, 1210.91101074, 39.34000015, 0.00000000
1, 3.8300, 383, 0.01121345, -0.97718012, -0.22874527, 0.52419233, 0.18970484, -0.13714316, 12.77127552, -65.92666626, 48.86497116, -0.30385122, 0.05521940, -8.42818737, 0.99729300, 0.00260902, -0.00067542, 0.07348195, -0.01026157, 0.98252201, -0.77124000, 87.59900665, 1210.91101074, 39.34000015, 0.00000000
1, 3.8400, 384, 0.00993927, -0.97890896, -0.22855620, 0.54163879, 0.18927240, -0.10204899, 12.29593849, -65.53085327, 48.42723465, -0.29841349, 0.05663323, -8.42662525, 0.99729407, 0.00256080, -0.00068421, 0.07346836, -0.00895792, 0.98415351, -0.77142960, 87.59900665, 1210.91101074, 39.34000015, 0.00000000
1, 3.8500, 385, 0.01043971, -0.97753704, -0.22807938, 0.57814324, 0.17297414, -0.13766001, 12.44219589, -65.39891052, 49.13142014, -0.29260954, 0.05835625, -8.42530060, 0.99729502, 0.00250919, -0.00069545, 0.07345682, -0.00943548, 0.98267895, -0.77190697, 87.59900665, 1210.91101074, 39.34000015, 0.00000000
