SensorId, TimeStamp (s), FrameNumber, AccX (g), AccY (g), AccZ (g), GyroX (deg/s), GyroY (deg/s), GyroZ (deg/s), MagX (uT), MagY (uT), MagZ (uT), EulerX (deg), EulerY (deg), EulerZ (deg), QuatW, QuatX, QuatY, QuatZ, LinAccX (g), LinAccY (g), LinAccZ (g), Pressure (kPa), Altitude (m), Temperature (degC), HeaveMotion (m)
1, 0.0000, 0, 0.00357100, -0.90862995, -0.41060954, -0.08807266, -1.19627571, -0.08091152, 16.06208038, -61.74863815, 38.32123184, -0.77191472, -0.38886952, -1.27523673, 0.99990946, 0.00677348, 0.00331827, 0.01115085, -0.01032627, 0.92209941, -0.58927691, 87.58400726, 1212.31579590, 35.54000092, 0.00000000
1, 0.0100, 1, 0.00383763, -0.90849125, -0.40946722, -0.12346698, -1.24801540, -0.08189099, 16.13521194, -60.34130478, 38.32123184, -0.77323592, -0.39320901, -1.28694916, 0.99990809, 0.00678577, 0.00335531, 0.01125334, -0.01067387, 0.92197669, -0.59041846, 87.58400726, 1212.31579590, 35.54000092, 0.00000000
1, 0.0200, 2, 0.00465841, -0.90986598, -0.41245264, -0.17919044, -0.95598072, -0.12831575, 15.51361179, -58.93396759, 38.35929489, -0.77509964, -0.39593369, -1.29617798, 0.99990702, 0.00680257, 0.00337836, 0.01133409, -0.01155137, 0.92338216, -0.58743215, 87.58400726, 1212.31579590, 35.54000092, 0.00000000
1, 0.0300, 3, 0.00436435, -0.91006124, -0.41390339, -0.14598882, -0.42138433, -0.27538291, 15.95238781, -59.98946762, 38.60671234, -0.81655639, -0.40612295, -1.33137798, 0.99990064, 0.00716639, 0.00346097, 0.01164308, -0.01131698, 0.92378432, -0.58597827, 87.58400726, 1212.31579590, 35.54000092, 0.00000000
1, 0.0400, 4, 0.00333002, -0.91124088, -0.41746151, -0.09386435, -0.07618757, -0.37375492, 15.95238781, -59.98946762, 38.60671234, -0.81750911, -0.40302274, -1.33358824, 0.99990040, 0.00717445, 0.00343368, 0.01166221, -0.01038823, 0.92550361, -0.58241189, 87.58400726, 1212.31579590, 35.54000092, 0.00000000
1, 0.0500, 5, 0.00433352, -0.91431808, -0.42058021, 0.06762724, -0.24816842, -0.27239487, 15.80613136, -60.86905289, 38.60671234, -0.81684989, -0.40154952, -1.33697534, 0.99990016, 0.00716865, 0.00342068, 0.01169165, -0.01134399, 0.92857939, -0.57929349, 87.58400726, 1212.31579590, 35.54000092, 0.00000000
1, 0.0600, 6, 0.00596811, -0.91905791, -0.42204246, 0.06842984, -0.52461863, -0.15516119, 16.06208038, -61.92455292, 38.43542480, -0.81620258, -0.40227592, -1.34240675, 0.99989963, 0.00716324, 0.00342674, 0.01173907, -0.01298404, 0.93331033, -0.57783133, 87.58400726, 1212.31579590, 35.54000092, 0.00000000
1, 0.0700, 7, 0.00695382, -0.91842401, -0.42267329, 0.28613028, -0.98806125, -0.04252247, 15.87925720, -60.91303253, 38.87316132, -0.81339967, -0.40592322, -1.35163867, 0.99989867, 0.00713943, 0.00345828, 0.01181977, -0.01401430, 0.93263614, -0.57720083, 87.58400726, 1212.31579590, 35.54000092, 0.00000000
1, 0.0800, 8, 0.00565534, -0.91916293, -0.42146203, 0.45096824, -1.31212449, -0.08499649, 15.33078861, -59.28580475, 38.30220032, -0.82686812, -0.41225949, -1.39408398, 0.99989325, 0.00725891, 0.00350949, 0.01219094, -0.01279699, 0.93339622, -0.57841116, 87.58400726, 1212.31579590, 35.54000092, 0.00000000
1, 0.0900, 9, 0.00527523, -0.91757947, -0.41973180, 0.28866291, -1.15844274, -0.11642550, 15.47705078, -59.54967499, 38.24510574, -0.82405454, -0.41592976, -1.40517139, 0.99989218, 0.00723509, 0.00354112, 0.01228783, -0.01251029, 0.93197757, -0.58013833, 87.58400726, 1212.31579590, 35.54000092, 0.00000000
1, 0.1000, 10, 0.00398754, -0.91470540, -0.41557151, 0.32518351, -1.12270963, -0.18609925, 15.47705078, -59.54967499, 38.24510574, -0.82086354, -0.41881761, -1.41622329, 0.99989104, 0.00720790, 0.00356596, 0.01238434, -0.01127786, 0.92905569, -0.58429897, 87.58400726, 1212.31579590, 35.54000092, 0.00000000
1, 0.1100, 11, 0.00359175, -0.91242963, -0.41328263, 0.34250632, -1.00192642, -0.21876958, 15.22109699, -61.13293076, 38.30220032, -0.81751102, -0.42091337, -1.42630744, 0.99989003, 0.00717918, 0.00358398, 0.01247236, -0.01092690, 0.92671740, -0.58658832, 87.58400726, 1212.31579590, 35.54000092, 0.00000000
1, 0.1200, 12, 0.00386358, -0.91058141, -0.41228184, 0.32644486, -0.96518254, -0.37615269, 15.95238781, -60.20936584, 38.56864929, -0.81430185, -0.42142153, -1.43669736, 0.99988908, 0.00715156, 0.00358812, 0.01256295, -0.01121905, 0.92481351, -0.58758980, 87.58400726, 1212.31579590, 35.54000092, 0.00000000
1, 0.1300, 13, 0.00334496, -0.90906382, -0.41233817, 0.27279016, -1.03478885, -0.34229532, 16.61054802, -60.86905289, 38.81606293, -0.82582599, -0.42704928, -1.47875488, 0.99988359, 0.00725407, 0.00363330, 0.01293064, -0.01073277, 0.92330098, -0.58753318, 87.58400726, 1212.31579590, 35.54000092, 0.00000000
1, 0.1400, 14, 0.00394890, -0.91169763, -0.41296580, 0.12958002, -1.03562784, -0.35945305, 15.33078861, -59.15386200, 38.73993683, -0.82458192, -0.42799881, -1.48969257, 0.99988240, 0.00724366, 0.00364103, 0.01302610, -0.01141115, 0.92609036, -0.58690280, 87.58400726, 1212.31579590, 35.54000092, 0.00000000
1, 0.1500, 15, 0.00473914, -0.91351146, -0.41518551, 0.05970749, -1.05133748, -0.48261765, 15.33078861, -59.15386200, 38.73993683, -0.82406110, -0.42788878, -1.50126791, 0.99988109, 0.00723948, 0.00363940, 0.01312708, -0.01220925, 0.92789495, -0.58468312, 87.58400726, 1212.31579590, 35.54000092, 0.00000000
1, 0.1600, 16, 0.00427683, -0.91260463, -0.41709170, -0.11962440, -1.10477567, -0.44803581, 15.44048595, -59.19784164, 38.43542480, -0.82532972, -0.42831197, -1.51316583, 0.99987960, 0.00725097, 0.00364219, 0.01323096, -0.01174603, 0.92700326, -0.58277667, 87.58400726, 1212.31579590, 35.54000092, 0.00000000
1, 0.1700, 17, 0.00402571, -0.91362417, -0.41842479, -0.29951119, -1.12419498, -0.39515865, 15.65986919, -59.41773987, 38.68284225, -0.82838941, -0.42929748, -1.52500057, 0.99987799, 0.00727816, 0.00364969, 0.01333438, -0.01151008, 0.92806137, -0.58144295, 87.58400726, 1212.31579590, 35.54000092, 0.00000000
1, 0.1800, 18, 0.00593669, -0.91433680, -0.41982439, -0.22877644, -0.93409210, -0.44411340, 15.33078861, -61.30884552, 38.37833023, -0.85007840, -0.42715397, -1.56339526, 0.99987215, 0.00746838, 0.00362596, 0.01366995, -0.01341853, 0.92890000, -0.58004153, 87.58400726, 1212.31579590, 35.54000092, 0.00000000
1, 0.1900, 19, 0.00550565, -0.91396242, -0.42078021, 0.14461251, -0.74417639, -0.33579335, 15.65986919, -61.04496765, 38.51155472, -0.84866780, -0.42713290, -1.57157981, 0.99987119, 0.00745632, 0.00362541, 0.01374132, -0.01295592, 0.92878628, -0.57908213, 87.58400726, 1212.31579590, 35.54000092, 0.00000000
1, 0.2000, 20, 0.00639457, -0.91198295, -0.41980252, 0.37359539, -0.50450110, -0.19082867, 15.65986919, -61.04496765, 38.51155472, -0.84494919, -0.42745531, -1.57701349, 0.99987084, 0.00742409, 0.00362832, 0.01378863, -0.01385348, 0.92675513, -0.58006060, 87.58400726, 1212.31579590, 35.54000092, 0.00000000
1, 0.2100, 21, 0.00384712, -0.91276133, -0.41722059, 0.92664516, -0.24342136, -0.15187541, 15.73299980, -60.16538239, 38.60671234, -0.83571351, -0.42706603, -1.57997894, 0.99987108, 0.00734355, 0.00362584, 0.01381419, -0.01129895, 0.92741036, -0.58264434, 87.58400726, 1212.31579590, 35.54000092, 0.00000000
1, 0.2200, 22, 0.00487345, -0.91392910, -0.41564855, 0.92510402, -0.26257998, -0.02922529, 15.69643497, -59.94548798, 38.53058243, -0.82647759, -0.42787358, -1.58261979, 0.99987137, 0.00726314, 0.00363383, 0.01383699, -0.01233403, 0.92841601, -0.58421868, 87.58400726, 1212.31579590, 35.54000092, 0.00000000
1, 0.2300, 23, 0.00503557, -0.91444153, -0.41192749, 0.67336690, -0.16134644, -0.04390502, 15.44048595, -59.59365463, 38.26413727, -0.82966793, -0.42625445, -1.61435425, 0.99986726, 0.00729178, 0.00361730, 0.01411389, -0.01249679, 0.92883021, -0.58794117, 87.58400726, 1212.31579590, 35.54000092, 0.00000000
1, 0.2400, 24, 0.00616167, -0.91487300, -0.41253364, 0.52785063, -0.04354869, 0.02933005, 15.40392017, -60.29732513, 38.51155472, -0.82438618, -0.42670104, -1.61470234, 0.99986756, 0.00724577, 0.00362183, 0.01411679, -0.01360739, 0.92929298, -0.58733463, 87.58400726, 1212.31579590, 35.54000092, 0.00000000
1, 0.2500, 25, 0.00623395, -0.91330963, -0.41301396, 0.42249742, -0.12843736, -0.07760213, 15.40392017, -60.29732513, 38.51155472, -0.82017720, -0.42651814, -1.61624873, 0.99986762, 0.00720907, 0.00362065, 0.01413014, -0.01368129, 0.92765081, -0.58685547, 87.58400726, 1212.31579590, 35.54000092, 0.00000000
1, 0.2600, 26, 0.00599528, -0.91398710, -0.41280603, 0.28015476, -0.19760087, -0.11377728, 15.18453217, -60.73711777, 38.49252319, -0.81738687, -0.42628664, -1.61855447, 0.99986762, 0.00718476, 0.00361883, 0.01415015, -0.01343710, 0.92826706, -0.58706427, 87.58400726, 1212.31579590, 35.54000092, 0.00000000
1, 0.2700, 27, 0.00637652, -0.91418260, -0.41360328, 0.06776738, -0.31735262, -0.23869318, 15.73299980, -59.98946762, 38.28316879, -0.81673074, -0.42540407, -1.62243605, 0.99986714, 0.00717905, 0.00361097, 0.01418395, -0.01380428, 0.92843550, -0.58626759, 87.58400726, 1212.31579590, 35.54000092, 0.00000000
1, 0.2800, 28, 0.00571895, -0.91574961, -0.41343704, 0.21368243, -0.45201659, -0.32986239, 15.22109699, -59.41773987, 38.13091278, -0.83139575, -0.42355016, -1.65762186, 0.99986190, 0.00730789, 0.00359073, 0.01449130, -0.01312736, 0.93005013, -0.58643323, 87.58400726, 1212.31579590, 35.54000092, 0.00000000
1, 0.2900, 29, 0.00494719, -0.91711211, -0.41477829, 0.14034490, -0.43714580, -0.22385551, 15.58674240, -58.93396759, 38.58768082, -0.83002609, -0.42329261, -1.66254461, 0.99986142, 0.00729606, 0.00358835, 0.01453420, -0.01233824, 0.93160874, -0.58508921, 87.58400726, 1212.31579590, 35.54000092, 0.00000000
1, 0.3000, 30, 0.00435236, -0.91606665, -0.41591573, 0.07016491, -0.66126770, -0.19319597, 15.58674240, -58.93396759, 38.58768082, -0.82936347, -0.42423096, -1.66938007, 0.99986053, 0.00729061, 0.00359618, 0.01459388, -0.01174369, 0.93054867, -0.58395207, 87.58400726, 1212.31579590, 35.54000092, 0.00000000
1, 0.3100, 31, 0.00304462, -0.91572458, -0.41561988, 0.19632724, -0.67686260, -0.22906654, 15.58674240, -61.39680099, 38.73993683, -0.82744706, -0.42490581, -1.67652082, 0.99985963, 0.00727420, 0.00360186, 0.01465617, -0.01045497, 0.93017626, -0.58424824, 87.58400726, 1212.31579590, 35.54000092, 0.00000000
1, 0.3200, 32, 0.00291729, -0.91545063, -0.41571161, 0.31912711, -0.59240639, -0.08704021, 15.51361179, -60.95701218, 38.35929489, -0.82429177, -0.42653188, -1.68232667, 0.99985909, 0.00724706, 0.00361609, 0.01470683, -0.01035046, 0.92985797, -0.58415699, 87.58400726, 1212.31579590, 35.54000092, 0.00000000
1, 0.3300, 33, 0.00536276, -0.91468596, -0.41355640, 0.69372869, -0.40105796, -0.06658525, 15.18453217, -59.41773987, 38.41639328, -0.83136517, -0.42740297, -1.71600068, 0.99985427, 0.00730995, 0.00362063, 0.01500092, -0.01281606, 0.92906034, -0.58631253, 87.58400726, 1212.31579590, 35.54000092, 0.00000000
1, 0.3400, 34, 0.00704616, -0.91460150, -0.41150668, 0.79781049, 0.01173922, -0.07580353, 15.03827477, -59.94548798, 38.32123184, -0.82338512, -0.42666531, -1.71631026, 0.99985480, 0.00724024, 0.00361522, 0.01500333, -0.01450301, 0.92902213, -0.58836156, 87.58400726, 1212.31579590, 35.54000092, 0.00000000
1, 0.3500, 35, 0.00684870, -0.91509730, -0.40920478, 0.79570889, 0.26931739, -0.08796009, 15.03827477, -59.94548798, 38.32123184, -0.81541568, -0.42476398, -1.71431816, 0.99985558, 0.00717039, 0.00359980, 0.01498558, -0.01427642, 0.92937773, -0.59066570, 87.58400726, 1212.31579590, 35.54000092, 0.00000000
1, 0.3600, 36, 0.00819356, -0.91407281, -0.40912119, 0.86224622, 0.73185879, -0.00812608, 15.69643497, -60.20936584, 38.47348785, -0.80674475, -0.42170304, -1.70778739, 0.99985713, 0.00709413, 0.00357463, 0.01492814, -0.01557187, 0.92820901, -0.59075165, 87.58400726, 1212.31579590, 35.54000092, 0.00000000
1, 0.3700, 37, 0.00753260, -0.91514409, -0.40947455, 0.66571027, 0.67913944, -0.02621138, 14.92858315, -60.86905289, 38.58768082, -0.80004406, -0.41869289, -1.70178449, 0.99985844, 0.00703509, 0.00354960, 0.01487537, -0.01486030, 0.92914784, -0.59040058, 87.58400726, 1212.31579590, 35.54000092, 0.00000000
1, 0.3800, 38, 0.00635721, -0.91453284, -0.41068298, 0.70374489, 0.38725057, 0.00269225, 14.67262936, -59.46171951, 38.64477539, -0.79849374, -0.41779712, -1.72765923, 0.99985510, 0.00702224, 0.00354040, 0.01510103, -0.01365184, 0.92844683, -0.58919364, 87.58400726, 1212.31579590, 35.54000092, 0.00000000
1, 0.3900, 39, 0.00644711, -0.91623670, -0.41081730, 0.87002158, 0.01287507, -0.11115716, 14.59950256, -61.88057327, 38.60671234, -0.78978771, -0.41673067, -1.72811246, 0.99985564, 0.00694615, 0.00353222, 0.01510465, -0.01371874, 0.93008208, -0.58906043, 87.58400726, 1212.31579590, 35.54000092, 0.00000000
1, 0.4000, 40, 0.00523679, -0.91553932, -0.41171780, 1.05275881, -0.41511044, -0.08555756, 15.47705078, -61.92455292, 38.37833023, -0.77930963, -0.41764367, -1.73239243, 0.99985564, 0.00685498, 0.00354131, 0.01514173, -0.01251930, 0.92921191, -0.58816218, 87.58400726, 1212.31579590, 35.54000092, 0.00000000
1, 0.4100, 41, 0.00450868, -0.91778761, -0.41291106, 1.07355165, -0.56762552, -0.19429752, 15.47705078, -61.92455292, 38.37833023, -0.76860338, -0.41818547, -1.73851120, 0.99985546, 0.00676182, 0.00354709, 0.01519482, -0.01180460, 0.93126959, -0.58697140, 87.58400726, 1212.31579590, 35.54000092, 0.00000000
1, 0.4200, 42, 0.00346391, -0.91526872, -0.41118139, 0.91326129, -0.68896109, -0.19635795, 15.44048595, -61.35282516, 37.90252686, -0.75951093, -0.41920173, -1.74572480, 0.99985498, 0.00668285, 0.00355674, 0.01525754, -0.01077762, 0.92858672, -0.58870316, 87.58400726, 1212.31579590, 35.54000092, 0.00000000
1, 0.4300, 43, 0.00597371, -0.91616696, -0.40986812, 0.82264978, -0.63877922, -0.15986912, 15.14796638, -60.12141037, 38.56864929, -0.75991374, -0.41805515, -1.78134441, 0.99985027, 0.00668731, 0.00354461, 0.01556828, -0.01329056, 0.92936528, -0.59001797, 87.58400726, 1212.31579590, 35.54000092, 0.00000000
1, 0.4400, 44, 0.00619986, -0.91746384, -0.40858269, 0.80641592, -0.63691401, -0.28282839, 15.40392017, -60.20936584, 38.28316879, -0.75189948, -0.41806796, -1.78842092, 0.99984974, 0.00661760, 0.00354540, 0.01562977, -0.01350071, 0.93063802, -0.59130388, 87.58400726, 1212.31579590, 35.54000092, 0.00000000
1, 0.4500, 45, 0.00756371, -0.91649783, -0.41062233, 0.75062239, -0.31028730, -0.34610400, 15.80613136, -62.01251602, 38.62574387, -0.74440914, -0.41617233, -1.79276454, 0.99984962, 0.00655212, 0.00352963, 0.01566734, -0.01483817, 0.92953801, -0.58926612, 87.58400726, 1212.31579590, 35.54000092, 0.00000000
1, 0.4600, 46, 0.00451277, -0.91711587, -0.41099855, 0.67689699, 0.01619888, -0.40932763, 15.80613136, -62.01251602, 38.62574387, -0.73766142, -0.41236827, -1.79437387, 0.99984992, 0.00649278, 0.00349727, 0.01568096, -0.01174053, 0.93002647, -0.58889198, 87.58400726, 1212.31579590, 35.54000092, 0.00000000
1, 0.4700, 47, 0.00525497, -0.91688609, -0.41135803, 0.67781842, -0.13874920, -0.37743142, 15.44048595, -61.26486588, 38.58768082, -0.73089343, -0.40948665, -1.79726970, 0.99984998, 0.00643342, 0.00347289, 0.01570586, -0.01241843, 0.92968965, -0.58853436, 87.58400726, 1212.31579590, 35.54000092, 0.00000000
1, 0.4800, 48, 0.00408718, -0.91810739, -0.40642580, 0.62568861, -0.24122821, -0.43216136, 15.00170898, -59.98946762, 38.54961777, -0.72415084, -0.41367254, -1.83104932, 0.99984556, 0.00637620, 0.00350846, 0.01600062, -0.01123413, 0.93079221, -0.59346819, 87.58400726, 1212.31579590, 35.54000092, 0.00000000
1, 0.4900, 49, 0.00472774, -0.92091352, -0.40376207, 0.55186623, -0.22693060, -0.29100841, 15.25766277, -60.16538239, 38.14994431, -0.71865928, -0.41193801, -1.83437979, 0.99984539, 0.00632814, 0.00349391, 0.01602942, -0.01192671, 0.93349171, -0.59613293, 87.58400726, 1212.31579590, 35.54000092, 0.00000000
1, 0.5000, 50, 0.00240125, -0.92130870, -0.40603644, 0.47990236, -0.47049761, -0.12012579, 15.65986919, -61.52874374, 38.51155472, -0.71388435, -0.41275454, -1.83923054, 0.99984503, 0.00628674, 0.00350144, 0.01607164, -0.00959635, 0.93379730, -0.59385967, 87.58400726, 1212.31579590, 35.54000092, 0.00000000
1, 0.5100, 51, -0.00039202, -0.92190409, -0.40764040, 0.42173758, -0.23335983, 0.04324252, 15.65986919, -61.52874374, 38.51155472, -0.70967335, -0.41409943, -1.84124339, 0.99984497, 0.00625025, 0.00351365, 0.01608915, -0.00682694, 0.93431664, -0.59225649, 87.58400726, 1212.31579590, 35.54000092, 0.00000000
1, 0.5200, 52, -0.00226175, -0.92224360, -0.40914011, 0.52491921, 0.14369905, 0.12116719, 16.24490356, -59.15386200, 38.47348785, -0.70442051, -0.41462308, -1.83950889, 0.99984545, 0.00620444, 0.00351905, 0.01607388, -0.00497753, 0.93457848, -0.59075761, 87.58400726, 1212.31579590, 35.54000092, 0.00000000
1, 0.5300, 53, -0.00151138, -0.92130297, -0.40814060, 0.39487174, 0.39742690, 0.28510419, 16.02551460, -60.73711777, 38.35929489, -0.70403600, -0.43485111, -1.86598575, 0.99984097, 0.00620476, 0.00369417, 0.01630596, -0.00582025, 0.93356669, -0.59175730, 87.58400726, 1212.31579590, 35.54000092, 0.00000000
1, 0.5400, 54, 0.00026276, -0.92219895, -0.40766612, 0.34083438, 0.39671829, 0.30283293, 15.91582298, -59.41773987, 38.09284973, -0.70059353, -0.43600526, -1.86117613, 0.99984187, 0.00617474, 0.00370499, 0.01626395, -0.00786391, 0.93444258, -0.59223008, 87.58400726, 1212.31579590, 35.54000092, 0.00000000
1, 0.5500, 55, 0.00187371, -0.91984415, -0.40858546, 0.23348761, 0.39616072, 0.28557134, 16.17177200, -59.68161774, 38.49252319, -0.69823450, -0.43700472, -1.85642838, 0.99984264, 0.00615414, 0.00371430, 0.01622250, -0.00950035, 0.93204045, -0.59131110, 87.58400726, 1212.31579590, 35.54000092, 0.00000000
1, 0.5600, 56, 0.00253971, -0.91787976, -0.40684107, 0.23411253, 0.32754961, 0.28412700, 16.17177200, -59.68161774, 38.49252319, -0.69586957, -0.43826959, -1.85231352, 0.99984324, 0.00613355, 0.00372589, 0.01618658, -0.01018206, 0.93003857, -0.59305578, 87.58400726, 1212.31579590, 35.54000092, 0.00000000
1, 0.5700, 57, 0.00465861, -0.91737658, -0.40582973, -0.00057681, 0.44521698, 0.32247546, 15.44048595, -62.32036591, 38.58768082, -0.69584560, -0.43940604, -1.84693432, 0.99984407, 0.00613333, 0.00373610, 0.01613971, -0.01231936, 0.92951769, -0.59406722, 87.58400726, 1212.31579590, 35.54000092, 0.00000000
1, 0.5800, 58, 0.00625731, -0.91416121, -0.40326619, 0.05007661, 0.73666310, 0.36360449, 16.17177200, -60.95701218, 38.22607422, -0.69369602, -0.43869758, -1.86901426, 0.99984109, 0.00611519, 0.00372904, 0.01633225, -0.01392791, 0.92629045, -0.59663081, 87.58400726, 1212.31579590, 35.54000092, 0.00000000
1, 0.5900, 59, 0.00495584, -0.91421527, -0.40297312, -0.21980195, 0.94153231, 0.29842418, 16.17177200, -60.42926025, 38.53058243, -0.69584608, -0.43759677, -1.85917091, 0.99984241, 0.00613347, 0.00371965, 0.01624638, -0.01259835, 0.92634779, -0.59692407, 87.58400726, 1212.31579590, 35.54000092, 0.00000000
1, 0.6000, 60, 0.00503013, -0.91362602, -0.40552187, -0.23730230, 1.02858806, 0.21241641, 15.11140537, -60.03344727, 38.03575134, -0.69816667, -0.43535611, -1.84887838, 0.99984372, 0.00615307, 0.00370033, 0.01615653, -0.01263656, 0.92579973, -0.59437513, 87.58400726, 1212.31579590, 35.54000092, 0.00000000
1, 0.6100, 61, 0.00332292, -0.91275591, -0.41018030, 0.05267418, 0.77440727, 0.15345038, 15.11140537, -60.03344727, 38.03575134, -0.69757992, -0.43361068, -1.84118724, 0.99984491, 0.00614746, 0.00368559, 0.01608931, -0.01090285, 0.92493385, -0.58971679, 87.58400726, 1212.31579590, 35.54000092, 0.00000000
1, 0.6200, 62, 0.00365481, -0.91504133, -0.41585448, 0.07340209, 0.41376662, 0.18096153, 15.40392017, -59.24182510, 38.24510574, -0.69681805, -0.43358201, -1.83668220, 0.99984556, 0.00614066, 0.00368569, 0.01604998, -0.01122334, 0.92721128, -0.58404285, 87.58400726, 1212.31579590, 35.54000092, 0.00000000
1, 0.6300, 63, 0.00280703, -0.91819376, -0.41585556, 0.43651140, 0.00577345, 0.11853802, 15.91582298, -60.56120300, 38.45445633, -0.71897954, -0.44578162, -1.86557245, 0.99983984, 0.00633669, 0.00378743, 0.01630343, -0.01043689, 0.93042779, -0.58404052, 87.58400726, 1212.31579590, 35.54000092, 0.00000000
1, 0.6400, 64, 0.00403863, -0.91890895, -0.41378573, 0.83260101, -0.05859636, 0.04565949, 16.28146744, -61.52874374, 38.62574387, -0.71066374, -0.44643793, -1.86603367, 0.99984032, 0.00626424, 0.00379432, 0.01630721, -0.01182328, 0.93136835, -0.58610636, 87.58400726, 1212.31579590, 35.54000092, 0.00000000
1, 0.6500, 65, 0.00340578, -0.92033029, -0.41315672, 1.02750957, -0.04247498, 0.20360680, 15.76956558, -61.57272339, 38.81606293, -0.70038432, -0.44847247, -1.86573148, 0.99984074, 0.00617483, 0.00381355, 0.01630434, -0.01121696, 0.93262351, -0.58673722, 87.58400726, 1212.31579590, 35.54000092, 0.00000000
1, 0.6600, 66, 0.00448203, -0.92155600, -0.41370758, 0.91736603, 0.31774879, 0.15878218, 15.76956558, -61.57272339, 38.81606293, -0.69120359, -0.44863302, -1.86230659, 0.99984175, 0.00609463, 0.00381644, 0.01627416, -0.01231184, 0.93367487, -0.58618832, 87.58400726, 1212.31579590, 35.54000092, 0.00000000
1, 0.6700, 67, 0.00405446, -0.92063671, -0.41244414, 0.76926327, 0.69255143, 0.25500661, 15.33078861, -59.94548798, 38.60671234, -0.68346888, -0.44815010, -1.85504591, 0.99984324, 0.00602683, 0.00381371, 0.01621053, -0.01187916, 0.93261719, -0.58745348, 87.58400726, 1212.31579590, 35.54000092, 0.00000000
1, 0.6800, 68, 0.00550877, -0.91941768, -0.41103494, 0.76851469, 0.88237810, 0.18868656, 15.36735439, -60.16538239, 38.49252319, -0.68375331, -0.44618213, -1.87502158, 0.99984038, 0.00602970, 0.00379544, 0.01638473, -0.01330823, 0.93129516, -0.58886409, 87.58400726, 1212.31579590, 35.54000092, 0.00000000
1, 0.6900, 69, 0.00437186, -0.91762084, -0.40804994, 0.53406769, 1.00033212, 0.20946212, 15.73299980, -59.98946762, 38.66381073, -0.67834258, -0.44403335, -1.86510229, 0.99984223, 0.00598186, 0.00377799, 0.01629789, -0.01213831, 0.92949259, -0.59184945, 87.58400726, 1212.31579590, 35.54000092, 0.00000000
1, 0.7000, 70, 0.00392399, -0.91639459, -0.40496922, 0.31949249, 1.12071919, 0.08960147, 15.51361179, -62.93607712, 38.81606293, -0.67510623, -0.44030026, -1.85454082, 0.99984401, 0.00595274, 0.00374642, 0.01620544, -0.01163417, 0.92819792, -0.59493136, 87.58400726, 1212.31579590, 35.54000092, 0.00000000
1, 0.7100, 71, 0.00399498, -0.91486508, -0.40523440, 0.22879466, 1.15346158, 0.14330234, 15.51361179, -62.93607712, 39.10154343, -0.67274082, -0.43692651, -1.84345031, 0.99984586, 0.00593127, 0.00371790, 0.01610843, -0.01164244, 0.92661953, -0.59466732, 87.58400726, 1212.31579590, 35.54000092, 0.00000000
1, 0.7200, 72, 0.00447735, -0.91451001, -0.40802652, 0.19569030, 0.93105388, 0.08599284, 15.44048595, -60.78109741, 39.10154343, -0.67073798, -0.43393165, -1.83461952, 0.99984723, 0.00591309, 0.00369250, 0.01603116, -0.01206997, 0.92623121, -0.59187603, 87.58400726, 1212.31579590, 35.54000092, 0.00000000
1, 0.7300, 73, 0.00582455, -0.91405094, -0.41080841, 0.28978845, 0.65960532, -0.06062840, 15.47705078, -61.26486588, 38.75896835, -0.68563914, -0.42864099, -1.85687995, 0.99984348, 0.00604308, 0.00364308, 0.01622559, -0.01334977, 0.92580444, -0.58909422, 87.58400726, 1212.31579590, 35.54000092, 0.00000000
1, 0.7400, 74, 0.00862939, -0.91607994, -0.41297686, 0.24043901, 0.14431357, -0.05373245, 15.47705078, -60.64915848, 38.56864929, -0.68322533, -0.42756411, -1.85581303, 0.99984378, 0.00602183, 0.00363408, 0.01621615, -0.01609927, 0.92802393, -0.58692384, 87.58400726, 1212.31579590, 35.54000092, 0.00000000
1, 0.7500, 75, 0.00859168, -0.91848826, -0.41499451, 0.45976180, -0.03981318, -0.23405774, 16.35459518, -60.73711777, 38.60671234, -0.67862779, -0.42558783, -1.85718906, 0.99984396, 0.00598148, 0.00361742, 0.01622792, -0.01603089, 0.93036234, -0.58490729, 87.58400726, 1212.31579590, 35.54000092, 0.00000000
1, 0.7600, 76, 0.00970731, -0.91774189, -0.41291550, 0.64013886, -0.26253855, -0.16897896, 15.84269142, -61.30884552, 38.47348785, -0.67225713, -0.42511049, -1.86036098, 0.99984384, 0.00592592, 0.00361399, 0.01625537, -0.01713032, 0.92951965, -0.58698761, 87.58400726, 1212.31579590, 35.54000092, 0.00000000
1, 0.7700, 77, 0.00940001, -0.91799355, -0.41270527, 0.57222795, -0.46664217, -0.31368864, 15.84269142, -61.30884552, 38.47348785, -0.66655868, -0.42413956, -1.86597526, 0.99984342, 0.00587624, 0.00360604, 0.01630412, -0.01681123, 0.92966276, -0.58719921, 87.58400726, 1212.31579590, 35.54000092, 0.00000000
1, 0.7800, 78, 0.00782214, -0.91615975, -0.41252473, 0.30611551, -0.62140816, -0.42159799, 14.48980618, -60.25334549, 38.53058243, -0.68108904, -0.41873154, -1.90022182, 0.99983788, 0.00600332, 0.00355499, 0.01660311, -0.01519176, 0.92783403, -0.58737993, 87.58400726, 1212.31579590, 35.54000092, 0.00000000
1, 0.7900, 79, 0.00825412, -0.91476983, -0.41131008, 0.35937154, -0.53493559, -0.43752128, 15.11140537, -60.07742691, 38.28316879, -0.67753255, -0.41690671, -1.90693617, 0.99983722, 0.00597223, 0.00353923, 0.01666149, -0.01554293, 0.92661732, -0.58859313, 87.58400726, 1212.31579590, 35.54000092, 0.00000000
1, 0.8000, 80, 0.00853701, -0.91274387, -0.41193864, 0.46562475, -0.41430864, -0.41773206, 16.09864616, -61.30884552, 38.93025589, -0.67290723, -0.41477278, -1.91248012, 0.99983668, 0.00593174, 0.00352100, 0.01670961, -0.01579055, 0.92451763, -0.58796585, 87.58400726, 1212.31579590, 35.54000092, 0.00000000
1, 0.8100, 81, 0.00611731, -0.91297936, -0.41082829, 0.43133521, -0.29136857, -0.60840380, 15.22109699, -61.39680099, 38.85412979, -0.66861945, -0.41039667, -1.91767168, 0.99983627, 0.00589385, 0.00348318, 0.01675456, -0.01330739, 0.92467284, -0.58907747, 87.58400726, 1212.31579590, 35.54000092, 0.00000000
1, 0.8200, 82, 0.00450378, -0.91197586, -0.41219255, 0.43092030, -0.32653376, -0.55640697, 15.22109699, -61.39680099, 38.85412979, -0.66433913, -0.40663728, -1.92297280, 0.99983579, 0.00585611, 0.00345073, 0.01680049, -0.01162686, 0.92359936, -0.58771455, 87.58400726, 1212.31579590, 35.54000092, 0.00000000
1, 0.8300, 83, 0.00103559, -0.91146684, -0.41290370, 0.57679796, -0.32254276, -0.73255259, 14.48980618, -59.68161774, 39.00638580, -0.67359507, -0.41192991, -1.95674658, 0.99983013, 0.00593867, 0.00349380, 0.01709572, -0.00812243, 0.92306387, -0.58700395, 87.58400726, 1212.31579590, 35.54000092, 0.00000000
1, 0.8400, 84, 0.00229635, -0.91159344, -0.41535228, 0.54067612, -0.37514213, -0.68081290, 15.03827477, -59.85753250, 39.00638580, -0.66822708, -0.40723228, -1.96301138, 0.99982971, 0.00589133, 0.00345329, 0.01714998, -0.00943373, 0.92329198, -0.58455384, 87.58400726, 1212.31579590, 35.54000092, 0.00000000
1, 0.8500, 85, 0.00273828, -0.91481310, -0.41767818, 0.57843041, -0.52866262, -0.71931267, 15.18453217, -60.38528061, 39.44412231, -0.66248721, -0.40280524, -1.97083986, 0.99982888, 0.00584082, 0.00341513, 0.01721789, -0.00979621, 0.92641068, -0.58222967, 87.58400726, 1212.31579590, 35.54000092, 0.00000000
1, 0.8600, 86, 0.00261952, -0.91552734, -0.41694614, 0.70265269, -0.54654980, -0.61459887, 15.03827477, -59.98946762, 39.00638580, -0.65551907, -0.39940694, -1.97842431, 0.99982828, 0.00577974, 0.00338614, 0.01728369, -0.00961335, 0.92701095, -0.58296347, 87.58400726, 1212.31579590, 35.54000092, 0.00000000
1, 0.8700, 87, 0.00380177, -0.91643947, -0.41598597, 0.82746238, -0.49439332, -0.59630597, 15.03827477, -59.98946762, 39.00638580, -0.64728498, -0.39596334, -1.98547161, 0.99982774, 0.00570758, 0.00335699, 0.01734477, -0.01073232, 0.92778969, -0.58392560, 87.58400726, 1212.31579590, 35.54000092, 0.00000000
1, 0.8800, 88, 0.00377092, -0.91694194, -0.41506684, 0.79028416, -0.56557816, -0.45706236, 14.92858315, -61.17690277, 39.19670486, -0.65334576, -0.39886767, -2.01961040, 0.99982202, 0.00576191, 0.00337969, 0.01764296, -0.01068305, 0.92822504, -0.58484566, 87.58400726, 1212.31579590, 35.54000092, 0.00000000
1, 0.8900, 89, 0.00622485, -0.91700870, -0.41236368, 0.96703494, -0.49785265, -0.31555289, 15.80613136, -60.34130478, 39.23477173, -0.64372325, -0.39800465, -2.02557087, 0.99982160, 0.00567799, 0.00337335, 0.01769464, -0.01317471, 0.92830503, -0.58754838, 87.58400726, 1212.31579590, 35.54000092, 0.00000000
1, 0.9000, 90, 0.00507855, -0.91740489, -0.41148674, 0.98236376, -0.29273832, -0.25855258, 15.40392017, -60.82507324, 38.62574387, -0.63392162, -0.39682919, -2.02942705, 0.99982160, 0.00559240, 0.00336442, 0.01772794, -0.01201230, 0.92853343, -0.58842731, 87.58400726, 1212.31579590, 35.54000092, 0.00000000
1, 0.9100, 91, 0.00732329, -0.91588682, -0.40895909, 1.10627341, -0.27632004, -0.15311667, 15.22109699, -60.56120300, 38.87316132, -0.62287772, -0.39655110, -2.03272057, 0.99982154, 0.00549610, 0.00336354, 0.01775634, -0.01424351, 0.92683268, -0.59095705, 87.58400726, 1212.31579590, 35.54000092, 0.00000000
1, 0.9200, 92, 0.00721609, -0.91642225, -0.40991795, 1.04963362, -0.07205505, -0.07833571, 15.22109699, -60.56120300, 38.87316132, -0.61239034, -0.39612809, -2.03383827, 0.99982196, 0.00540456, 0.00336142, 0.01776576, -0.01413423, 0.92717886, -0.59000027, 87.58400726, 1212.31579590, 35.54000092, 0.00000000
1, 0.9300, 93, 0.00753007, -0.91731936, -0.40878251, 0.72703773, -0.03970874, -0.11182516, 15.55017757, -59.81355286, 38.93025589, -0.61706901, -0.38819996, -2.06316423, 0.99981737, 0.00544500, 0.00329013, 0.01802140, -0.01440181, 0.92797542, -0.59113717, 87.58400726, 1212.31579590, 35.54000092, 0.00000000
1, 0.9400, 94, 0.00791155, -0.91597170, -0.40883020, 0.60090798, 0.07994897, -0.14408024, 15.22109699, -60.42926025, 39.06348038, -0.61106223, -0.38655922, -2.06309867, 0.99981773, 0.00539233, 0.00327676, 0.01802058, -0.01467151, 0.92667133, -0.59108961, 87.58400726, 1212.31579590, 35.54000092, 0.00000000
1, 0.9500, 95, 0.00721707, -0.91585553, -0.41108304, 0.69410110, 0.01547990, -0.35666046, 15.62330818, -61.00099564, 39.04444885, -0.60413331, -0.38323623, -2.06449461, 0.99981791, 0.00533139, 0.00324879, 0.01803241, -0.01392890, 0.92644227, -0.58883834, 87.58400726, 1212.31579590, 35.54000092, 0.00000000
1, 0.9600, 96, 0.00790423, -0.91407090, -0.41149351, 0.56832129, -0.03782287, -0.30466127, 15.65986919, -61.26486588, 38.49252319, -0.59846503, -0.38060334, -2.06614995, 0.99981797, 0.00528157, 0.00322664, 0.01804657, -0.01456409, 0.92455471, -0.58842933, 87.58400726, 1212.31579590, 35.54000092, 0.00000000
1, 0.9700, 97, 0.00849300, -0.91415477, -0.41142616, 0.62570506, -0.18919681, -0.46622407, 15.65986919, -61.26486588, 38.49252319, -0.59223801, -0.37710693, -2.06985068, 0.99981785, 0.00522679, 0.00319694, 0.01807853, -0.01509817, 0.92453778, -0.58849812, 87.58400726, 1212.31579590, 35.54000092, 0.00000000
1, 0.9800, 98, 0.00594881, -0.91341561, -0.40840256, 0.64753771, -0.37515768, -0.62840533, 15.51361179, -60.95701218, 38.62574387, -0.59243119, -0.37475678, -2.10404062, 0.99981248, 0.00522906, 0.00317485, 0.01837674, -0.01249201, 0.92371619, -0.59152299, 87.58400726, 1212.31579590, 35.54000092, 0.00000000
1, 0.9900, 99, 0.00566757, -0.91247845, -0.40618357, 0.80907816, -0.39104423, -0.62923354, 15.44048595, -60.86905289, 38.64477539, -0.58437002, -0.37058666, -2.11027145, 0.99981195, 0.00515823, 0.00313948, 0.01843070, -0.01216146, 0.92272991, -0.59374279, 87.58400726, 1212.31579590, 35.54000092, 0.00000000
1, 1.0000, 100, 0.00416294, -0.91040266, -0.40778509, 0.73738450, -0.28754416, -0.69715142, 15.29422855, -59.68161774, 38.53058243, -0.57703048, -0.36537501, -2.11581969, 0.99981153, 0.00509350, 0.00309494, 0.01847868, -0.01057307, 0.92052537, -0.59214312, 87.58400726, 1212.31579590, 35.54000092, 0.00000000
1, 1.0100, 101, 0.00317406, -0.90966648, -0.41295972, 0.86195183, -0.23567417, -0.66128546, 15.40392017, -59.85753250, 38.39736176, -0.56845587, -0.36028168, -2.12076569, 0.99981129, 0.00501800, 0.00305166, 0.01852139, -0.00949779, 0.91964400, -0.58697051, 87.58400726, 1212.31579590, 35.54000092, 0.00000000
1, 1.0200, 102, 0.00352093, -0.90971196, -0.41363317, 0.95088208, -0.23583035, -0.60882592, 15.40392017, -59.85753250, 38.39736176, -0.55898303, -0.35566783, -2.12551165, 0.99981099, 0.00493473, 0.00301274, 0.01856235, -0.00975496, 0.91953045, -0.58629924, 87.58400726, 1212.31579590, 35.54000092, 0.00000000
1, 1.0300, 103, 0.00481540, -0.91013700, -0.40857607, 0.96925002, -0.39121079, -0.54183561, 16.09864616, -61.39680099, 38.51155472, -0.56010860, -0.35725412, -2.15980506, 0.99980527, 0.00494571, 0.00302491, 0.01886165, -0.01100949, 0.91983885, -0.59135771, 87.58400726, 1212.31579590, 35.54000092, 0.00000000
1, 1.0400, 104, 0.00425911, -0.90843445, -0.40090856, 1.07186544, -0.27488211, -0.25845104, 15.33078861, -61.26486588, 38.22607422, -0.54942453, -0.35600263, -2.16350746, 0.99980521, 0.00485239, 0.00301560, 0.01889362, -0.01048169, 0.91808814, -0.59902543, 87.58400726, 1212.31579590, 35.54000092, 0.00000000
1, 1.0500, 105, 0.00379327, -0.90872210, -0.39654660, 0.90404725, 0.08033478, -0.02195149, 15.40392017, -62.84811401, 38.39736176, -0.54036999, -0.35547850, -2.16298270, 0.99980569, 0.00477329, 0.00301254, 0.01888878, -0.00999794, 0.91821373, -0.60338908, 87.58400726, 1212.31579590, 35.54000092, 0.00000000
1, 1.0600, 106, 0.00518750, -0.90963483, -0.39139959, 1.03958929, 0.62691039, 0.20006455, 14.96514320, -59.68161774, 38.51155472, -0.52992910, -0.35477754, -2.15657806, 0.99980718, 0.00468191, 0.00300840, 0.01883260, -0.01137841, 0.91895497, -0.60853785, 87.58400726, 1212.31579590, 35.54000092, 0.00000000
1, 1.0700, 107, 0.01158118, -0.91283107, -0.38762969, 1.67690802, 0.96901292, 0.57445115, 14.96514320, -59.68161774, 38.51155472, -0.51308620, -0.35612324, -2.14562058, 0.99980968, 0.00453488, 0.00302335, 0.01873661, -0.01778316, 0.92190862, -0.61230987, 87.58400726, 1212.31579590, 35.54000092, 0.00000000
1, 1.0800, 108, 0.01814205, -0.91656643, -0.38432333, 2.31324077, 1.25793791, 1.05319262, 16.02551460, -61.00099564, 38.85412979, -0.48469996, -0.35433519, -2.15746284, 0.99980891, 0.00428723, 0.00301195, 0.01883912, -0.02437910, 0.92525858, -0.61561942, 87.58400726, 1212.31579590, 35.54000092, 0.00000000
1, 1.0900, 109, 0.01787534, -0.92302853, -0.38464952, 2.72176552, 1.44727516, 1.21412802, 15.95238781, -61.66067886, 38.77800369, -0.45735902, -0.35961941, -2.13969135, 0.99981260, 0.00404908, 0.00306317, 0.01868352, -0.02410678, 0.93119466, -0.61529768, 87.58400726, 1212.31579590, 35.54000092, 0.00000000
1, 1.1000, 110, 0.01357615, -0.93399882, -0.37917525, 3.13280106, 1.65691745, 1.18212104, 16.02551460, -60.56120300, 38.28316879, -0.42589313, -0.36377755, -2.12018633, 0.99981666, 0.00377469, 0.00310523, 0.01851263, -0.01989898, 0.94163698, -0.62077564, 87.58400726, 1212.31579590, 35.54000092, 0.00000000
1, 1.1100, 111, 0.01067049, -0.94523382, -0.37694913, 3.28129148, 0.97049922, 1.25512719, 16.35459518, -60.20936584, 38.54961777, -0.39297816, -0.37137339, -2.10669708, 0.99981970, 0.00348835, 0.00317723, 0.01839427, -0.01709749, 0.95230865, -0.62300515, 87.58400726, 1212.31579590, 35.54000092, 0.00000000
1, 1.1200, 112, 0.01405834, -0.95255089, -0.37964144, 3.60680747, 0.45615596, 1.38394415, 15.73299980, -59.98946762, 38.41639328, -0.35684669, -0.38222137, -2.09744811, 0.99982190, 0.00317458, 0.00327793, 0.01831285, -0.02065879, 0.95901841, -0.62031585, 87.58400726, 1212.31579590, 35.54000092, 0.00000000
1, 1.1300, 113, 0.01620977, -0.96192372, -0.37870055, 3.21612811, 0.24952005, 1.24016893, 15.73299980, -59.98946762, 38.41639328, -0.30868524, -0.38715860, -2.11902905, 0.99981958, 0.00275578, 0.00332819, 0.01849989, -0.02297080, 0.96771204, -0.62125981, 87.58400726, 1212.31579590, 35.54000092, 0.00000000
1, 1.1400, 114, 0.01827422, -0.97160089, -0.37788588, 1.81406069, 0.71997035, 1.18403625, 15.65986919, -62.36434555, 38.75896835, -0.29046223, -0.39513060, -2.10793734, 0.99982154, 0.00259774, 0.00340094, 0.01840275, -0.02512356, 0.97677308, -0.62207735, 87.58400726, 1212.31579590, 35.54000092, 0.00000000
1, 1.1500, 115, 0.01986726, -0.97223991, -0.37842688, 1.23311603, 1.41787231, 1.25322151, 15.29422855, -61.39680099, 38.75896835, -0.27801386, -0.40094820, -2.09009647, 0.99982452, 0.00248952, 0.00345408, 0.01824684, -0.02682600, 0.97716951, -0.62153673, 87.58400726, 1212.31579590, 35.54000092, 0.00000000
1, 1.1600, 116, 0.01853644, -0.96537191, -0.38023826, 0.41732618, 2.25059485, 1.36111605, 16.46429062, -61.08895111, 38.70186996, -0.27368146, -0.40442929, -2.06408381, 0.99982864, 0.00245148, 0.00348570, 0.01801982, -0.02557192, 0.97015750, -0.61972547, 87.58400726, 1212.31579590, 35.54000092, 0.00000000
1, 1.1700, 117, 0.01709849, -0.95211977, -0.38492811, -1.22062194, 2.64659357, 1.55023658, 15.33078861, -59.50569916, 38.94929123, -0.28569350, -0.40805772, -2.03346610, 0.99983299, 0.00255592, 0.00351616, 0.01775311, -0.02419298, 0.95699447, -0.61503494, 87.58400726, 1212.31579590, 35.54000092, 0.00000000
1, 1.1800, 118, 0.01394519, -0.93863571, -0.38849652, -3.40638208, 2.47562790, 1.51817393, 15.33078861, -59.50569916, 38.94929123, -0.31958866, -0.41037205, -2.03086925, 0.99983257, 0.00285194, 0.00353116, 0.01773155, -0.02110187, 0.94395781, -0.61146367, 87.58400726, 1212.31579590, 35.54000092, 0.00000000
1, 1.1900, 119, 0.01300571, -0.92143697, -0.39361414, -5.21296024, 2.15467453, 1.39390576, 15.62330818, -59.37376022, 38.53058243, -0.37156147, -0.41450149, -2.00484681, 0.99983501, 0.00330524, 0.00355990, 0.01750621, -0.02021991, 0.92756480, -0.60634106, 87.58400726, 1212.31579590, 35.54000092, 0.00000000
1, 1.2000, 120, 0.01242457, -0.90792930, -0.39035448, -5.60578537, 1.80680454, 1.49326420, 15.03827477, -61.48476028, 38.49252319, -0.42748216, -0.42091256, -1.98155236, 0.99983662, 0.00379341, 0.00360807, 0.01730490, -0.01972307, 0.91502202, -0.60959363, 87.58400726, 1212.31579590, 35.54000092, 0.00000000
1, 1.2100, 121, 0.01603567, -0.90114039, -0.39814311, -5.66437006, 2.25149512, 1.55552733, 15.69643497, -61.35282516, 38.98735428, -0.48396042, -0.42608017, -1.95392525, 0.99983865, 0.00428609, 0.00364566, 0.01706581, -0.02344055, 0.90922040, -0.60179681, 87.58400726, 1212.31579590, 35.54000092, 0.00000000
1, 1.2200, 122, 0.01628738, -0.90725195, -0.41276839, -5.13163948, 2.37091398, 1.85523915, 15.25766277, -60.42926025, 38.79703140, -0.53509623, -0.43348318, -1.92406201, 0.99984080, 0.00473240, 0.00370387, 0.01680717, -0.02380749, 0.91625768, -0.58716273, 87.58400726, 1212.31579590, 35.54000092, 0.00000000
1, 1.2300, 123, 0.01685528, -0.92310983, -0.43558300, -3.96662593, 2.46610904, 1.83609748, 15.25766277, -60.42926025, 38.79703140, -0.59032828, -0.43714756, -1.91939735, 0.99983889, 0.00521470, 0.00372795, 0.01676842, -0.02448487, 0.93296742, -0.56433928, 87.58400726, 1212.31579590, 35.54000092, 0.00000000
1, 1.2400, 124, 0.01195552, -0.93801206, -0.45045066, -1.64568818, 2.25070882, 1.42016613, 15.51361179, -60.78109741, 38.64477539, -0.60664511, -0.44101653, -1.89284909, 0.99984187, 0.00535676, 0.00376056, 0.01653749, -0.01963001, 0.94852877, -0.54946458, 87.58400726, 1212.31579590, 35.54000092, 0.00000000
1, 1.2500, 125, 0.00894771, -0.94952691, -0.45388907, 0.24955857, 1.70803583, 0.87560874, 15.62330818, -62.18843079, 39.04444885, -0.60405117, -0.44210410, -1.87372029, 0.99984467, 0.00533365, 0.00377132, 0.01637054, -0.01665510, 0.96010679, -0.54602528, 87.58400726, 1212.31579590, 35.54000092, 0.00000000
1, 1.2600, 126, 0.00914274, -0.95758730, -0.45096019, 1.21275115, 0.84643197, 0.50298113, 16.28146744, -60.78109741, 38.68284225, -0.59185731, -0.44327709, -1.86410868, 0.99984664, 0.00522711, 0.00378373, 0.01628633, -0.01686874, 0.96800512, -0.54895568, 87.58400726, 1212.31579590, 35.54000092, 0.00000000
1, 1.2700, 127, 0.00947705, -0.95804989, -0.43846786, 1.32433319, 0.43589607, 0.47643030, 15.58674240, -61.83659363, 38.81606293, -0.57858163, -0.44587129, -1.85837257, 0.99984789, 0.00511145, 0.00380851, 0.01623596, -0.01724393, 0.96823049, -0.56145012, 87.58400726, 1212.31579590, 35.54000092, 0.00000000
1, 1.2800, 128, 0.01292603, -0.95030159, -0.42169815, 0.80585903, 0.45097476, 0.35528558, 15.58674240, -61.83659363, 38.81606293, -0.57426012, -0.43507406, -1.88056219, 0.99984539, 0.00507294, 0.00371393, 0.01642896, -0.02067359, 0.96031225, -0.57822174, 87.58400726, 1212.31579590, 35.54000092, 0.00000000
1, 1.2900, 129, 0.01707070, -0.93997282, -0.41145602, -0.13210052, 0.88791186, 0.47281155, 15.33078861, -59.72559738, 38.54961777, -0.57551807, -0.43580729, -1.87051475, 0.99984670, 0.00508369, 0.00372059, 0.01634137, -0.02467375, 0.94999033, -0.58846492, 87.58400726, 1212.31579590, 35.54000092, 0.00000000
1, 1.3000, 130, 0.01626596, -0.92386681, -0.40491873, -1.00048387, 1.42689562, 0.68016165, 15.55017757, -59.24182510, 39.02541733, -0.58542848, -0.43625244, -1.85458052, 0.99984854, 0.00516971, 0.00372378, 0.01620268, -0.02387562, 0.93401098, -0.59500086, 87.58400726, 1212.31579590, 35.54000092, 0.00000000
1, 1.3100, 131, 0.01317013, -0.90456426, -0.40419880, -2.12864733, 1.38515961, 0.59484464, 15.36735439, -60.95701218, 39.25379944, -0.60663223, -0.43608084, -1.83922434, 0.99984974, 0.00535419, 0.00372001, 0.01606937, -0.02078176, 0.91499174, -0.59571791, 87.58400726, 1212.31579590, 35.54000092, 0.00000000
1, 1.3200, 132, 0.01044245, -0.88721788, -0.40675032, -3.55484247, 0.62090206, 0.47767109, 15.69643497, -60.86905289, 38.73993683, -0.64214027, -0.43792692, -1.83113587, 0.99984908, 0.00566401, 0.00373153, 0.01600004, -0.01806894, 0.89817536, -0.59316057, 87.58400726, 1212.31579590, 35.54000092, 0.00000000
1, 1.3300, 133, 0.00559178, -0.87479115, -0.41256019, -5.17497110, -0.40104836, 0.28536016, 15.69643497, -60.86905289, 38.73993683, -0.71172458, -0.44329634, -1.85941124, 0.99984127, 0.00627283, 0.00376712, 0.01624930, -0.01328388, 0.88661730, -0.58734024, 87.58400726, 1212.31579590, 35.54000092, 0.00000000
1, 1.3400, 134, 0.00253625, -0.87017155, -0.41846803, -6.30837107, -1.19077003, -0.23754561, 14.74575996, -59.41773987, 38.81606293, -0.77487236, -0.44596568, -1.87040949, 0.99983603, 0.00682455, 0.00378080, 0.01634749, -0.01030656, 0.88327187, -0.58141595, 87.58400726, 1212.31579590, 35.54000092, 0.00000000
1, 1.3500, 135, 0.00342692, -0.87015408, -0.42861176, -6.06411123, -1.71322656, -0.70631301, 15.18453217, -60.29732513, 38.75896835, -0.83560544, -0.44650021, -1.88812089, 0.99982965, 0.00735512, 0.00377566, 0.01650406, -0.01122085, 0.88435709, -0.57125700, 87.58400726, 1212.31579590, 35.54000092, 0.00000000
1, 1.3600, 136, 0.00554104, -0.87397927, -0.43356979, -4.76565075, -2.11046529, -0.98231220, 15.33078861, -61.61669922, 39.06348038, -0.88339293, -0.44616047, -1.91075909, 0.99982315, 0.00777277, 0.00376428, 0.01670313, -0.01333131, 0.88910401, -0.56628549, 87.58400726, 1212.31579590, 35.54000092, 0.00000000
1, 1.3700, 137, 0.00842871, -0.88077474, -0.43300235, -2.96983743, -2.38799381, -0.99364185, 15.44048595, -60.16538239, 38.73993683, -0.91323149, -0.44687301, -1.93621588, 0.99981743, 0.00803405, 0.00376436, 0.01692627, -0.01621556, 0.89654541, -0.56684297, 87.58400726, 1212.31579590, 35.54000092, 0.00000000
1, 1.3800, 138, 0.01056691, -0.89020407, -0.43040052, -1.39212906, -2.72268105, -0.75940943, 15.44048595, -60.16538239, 38.51155472, -0.95119107, -0.44740450, -1.99063206, 0.99980652, 0.00836711, 0.00375942, 0.01740234, -0.01838728, 0.90641588, -0.56943744, 87.58400726, 1212.31579590, 35.54000092, 0.00000000
1, 1.3900, 139, 0.01134021, -0.89688325, -0.42160940, -0.59114218, -3.08744717, -0.10155345, 15.18453217, -59.76956940, 38.51155472, -0.95726180, -0.45915291, -2.01912022, 0.99980134, 0.00842282, 0.00385891, 0.01765194, -0.01926884, 0.91355705, -0.57822019, 87.58400726, 1212.31579590, 35.54000092, 0.00000000
1, 1.4000, 140, 0.01005328, -0.90145600, -0.41101038, -0.53506356, -3.79516006, 0.18222739, 15.11140537, -59.98946762, 38.26413727, -0.96279883, -0.47639769, -2.05290365, 0.99979502, 0.00847495, 0.00400602, 0.01794814, -0.01824803, 0.91821611, -0.58881557, 87.58400726, 1212.31579590, 35.54000092, 0.00000000
1, 1.4100, 141, 0.00724101, -0.90636051, -0.40603024, -0.93060941, -4.05955839, 0.42397538, 15.29422855, -61.74863815, 39.06348038, -0.97227043, -0.49693608, -2.08804750, 0.99978793, 0.00856208, 0.00418110, 0.01825660, -0.01577396, 0.92326725, -0.59379041, 87.58400726, 1212.31579590, 35.54000092, 0.00000000
1, 1.4200, 142, 0.00322649, -0.90785325, -0.40793088, -1.28776443, -4.25133944, 0.43861452, 15.73299980, -61.00099564, 38.54961777, -0.98532170, -0.51840258, -2.12483025, 0.99978024, 0.00868076, 0.00436353, 0.01857959, -0.01213925, 0.92495644, -0.59188318, 87.58400726, 1212.31579590, 35.54000092, 0.00000000
1, 1.4300, 143, -0.00247054, -0.91021824, -0.41416377, -1.59359753, -3.82147288, 0.23764810, 15.47705078, -59.85753250, 37.97865677, -1.01088393, -0.54216194, -2.18559432, 0.99976724, 0.00891004, 0.00456195, 0.01911252, -0.00680755, 0.92762160, -0.58564168, 87.58400726, 1212.31579590, 35.54000092, 0.00000000
1, 1.4400, 144, -0.00642431, -0.90939456, -0.42386234, -1.92109609, -2.92804956, 0.01133703, 15.47705078, -59.85753250, 37.97865677, -1.03020418, -0.55431235, -2.21197486, 0.99976075, 0.00908169, 0.00466265, 0.01934439, -0.00317762, 0.92724562, -0.57593215, 87.58400726, 1212.31579590, 35.54000092, 0.00000000
1, 1.4500, 145, -0.01051133, -0.91242450, -0.42894396, -1.87565815, -1.74122071, -0.13963346, 15.51361179, -59.32978439, 37.97865677, -1.04902875, -0.56020713, -2.22816610, 0.99975634, 0.00924758, 0.00470959, 0.01948688, 0.00076870, 0.93060911, -0.57084322, 87.58400726, 1212.31579590, 35.54000092, 0.00000000
1, 1.4600, 146, -0.01487206, -0.91522014, -0.42775011, -1.61630261, -0.71023047, -0.10117346, 15.03827477, -61.35282516, 38.47348785, -1.06521761, -0.56220824, -2.23483825, 0.99975377, 0.00938943, 0.00472375, 0.01954592, 0.00507315, 0.93371028, -0.57203090, 87.58400726, 1212.31579590, 35.54000092, 0.00000000
1, 1.4700, 147, -0.01371661, -0.91476554, -0.42253438, -1.25313520, 0.38648966, 0.16686878, 15.73299980, -61.92455292, 38.70186996, -1.07772768, -0.56213069, -2.23046231, 0.99975342, 0.00949838, 0.00472130, 0.01950825, 0.00390449, 0.93349922, -0.57724202, 87.58400726, 1212.31579590, 35.54000092, 0.00000000
1, 1.4800, 148, -0.01202461, -0.91406363, -0.41900325, -1.02925539, 1.10558283, 0.37466317, 15.25766277, -60.12141037, 38.60671234, -1.09929359, -0.57534295, -2.24614334, 0.99974835, 0.00968943, 0.00483158, 0.01964704, 0.00216457, 0.93303299, -0.58076817, 87.58400726, 1212.31579590, 35.54000092, 0.00000000
1, 1.4900, 149, -0.00934479, -0.91389006, -0.41783431, -1.09191430, 1.70149636, 0.63347954, 15.25766277, -60.12141037, 38.60671234, -1.11014271, -0.57408261, -2.22788692, 0.99975061, 0.00978310, 0.00482028, 0.01948812, -0.00068472, 0.93319643, -0.58192903, 87.58400726, 1212.31579590, 35.54000092, 0.00000000
1, 1.5000, 150, -0.00476873, -0.91200870, -0.42081693, -1.00593150, 1.83655655, 0.81183898, 14.59950256, -59.76956940, 38.34026337, -1.12014329, -0.57388645, -2.20767379, 0.99975324, 0.00986947, 0.00481861, 0.01931217, -0.00524464, 0.93148613, -0.57894319, 87.58400726, 1212.31579590, 35.54000092, 0.00000000
1, 1.5100, 151, -0.00281958, -0.91195399, -0.42448744, -1.02189660, 1.40530384, 0.94344771, 15.65986919, -60.03344727, 38.68284225, -1.13029516, -0.57666647, -2.19084167, 0.99975508, 0.00995780, 0.00484261, 0.01916599, -0.00721892, 0.93161261, -0.57526898, 87.58400726, 1212.31579590, 35.54000092, 0.00000000
1, 1.5200, 152, -0.00260022, -0.91009378, -0.42825624, -0.81685263, 0.49718148, 0.95888489, 15.22109699, -61.44078064, 38.43542480, -1.13843274, -0.58333963, -2.18224168, 0.99975544, 0.01002954, 0.00490022, 0.01909187, -0.00753365, 0.92991036, -0.57149601, 87.58400726, 1212.31579590, 35.54000092, 0.00000000
1, 1.5300, 153, -0.00069616, -0.90590858, -0.42700547, -0.55525494, -0.63264537, 0.91675276, 15.07484055, -60.25334549, 38.34026337, -1.16781723, -0.59741783, -2.21039009, 0.99974751, 0.01028947, 0.00501563, 0.01933995, -0.00961490, 0.92594475, -0.57274055, 87.58400726, 1212.31579590, 35.54000092, 0.00000000
1, 1.5400, 154, 0.00046275, -0.90277481, -0.42352426, -0.09686279, -1.65743506, 0.84107029, 15.07484055, -60.25334549, 38.34026337, -1.16882575, -0.61193508, -2.22198415, 0.99974471, 0.01030122, 0.00514107, 0.01944242, -0.01104231, 0.92317271, -0.57621169, 87.58400726, 1212.31579590, 35.54000092, 0.00000000
1, 1.5500, 155, 0.00319010, -0.89931726, -0.41583911, 0.03642848, -2.13271594, 0.58457410, 16.09864616, -61.17690277, 38.51155472, -1.16850531, -0.62608510, -2.23898172, 0.99974120, 0.01030159, 0.00526305, 0.01959195, -0.01402185, 0.91970754, -0.58389431, 87.58400726, 1212.31579590, 35.54000092, 0.00000000
1, 1.5600, 156, 0.00337125, -0.89982522, -0.41436389, -0.23233980, -1.99588490, 0.48280317, 14.85545158, -60.47323990, 38.75896835, -1.17086291, -0.63874215, -2.25511956, 0.99973750, 0.01032507, 0.00537161, 0.01973396, -0.01444339, 0.92024237, -0.58536631, 87.58400726, 1212.31579590, 35.54000092, 0.00000000
1, 1.5700, 157, 0.00311193, -0.90438527, -0.41544554, -0.32303682, -1.18295777, 0.04313560, 15.73299980, -61.52874374, 38.34026337, -1.17410707, -0.64403164, -2.26566577, 0.99973524, 0.01035478, 0.00541625, 0.01982659, -0.01432722, 0.92485219, -0.58428204, 87.58400726, 1212.31579590, 35.54000092, 0.00000000
1, 1.5800, 158, 0.00253264, -0.90825272, -0.42021796, -0.40123370, 0.09180228, -0.29896942, 14.96514320, -62.71617889, 38.26413727, -1.20252025, -0.64155334, -2.29301238, 0.99972802, 0.01060352, 0.00538718, 0.02006629, -0.01375473, 0.92889106, -0.57950604, 87.58400726, 1212.31579590, 35.54000092, 0.00000000
1, 1.5900, 159, 0.00211409, -0.91307467, -0.42028785, -0.51659226, 1.34740889, -0.53589344, 14.96514320, -62.71617889, 38.26413727, -1.20766306, -0.63108939, -2.28290439, 0.99972969, 0.01064610, 0.00529593, 0.01997739, -0.01320507, 0.93411386, -0.57942927, 87.58400726, 1212.31579590, 35.54000092, 0.00000000
1, 1.6000, 160, 0.00019015, -0.91676378, -0.42011991, -0.50751376, 2.23863435, -0.46444938, 14.48980618, -59.46171951, 38.22607422, -1.21268415, -0.61757910, -2.26439214, 0.99973315, 0.01068673, 0.00517891, 0.01981488, -0.01106068, 0.93790054, -0.57959759, 87.58400726, 1212.31579590, 35.54000092, 0.00000000
1, 1.6100, 161, -0.00319993, -0.91751498, -0.42403919, -0.36545119, 2.44616628, -0.49567759, 14.67262936, -59.72559738, 38.26413727, -1.21628380, -0.60292333, -2.24414062, 0.99973702, 0.01071472, 0.00505232, 0.01963702, -0.00741744, 0.93871838, -0.57567960, 87.58400726, 1212.31579590, 35.54000092, 0.00000000
1, 1.6200, 162, -0.00449779, -0.91533393, -0.42831454, -0.65316510, 2.18289804, -0.27181414, 15.58674240, -60.16538239, 38.24510574, -1.22275841, -0.59139371, -2.22531915, 0.99974018, 0.01076843, 0.00495239, 0.01947204, -0.00589726, 0.93662357, -0.57140481, 87.58400726, 1212.31579590, 35.54000092, 0.00000000
1, 1.6300, 163, -0.00631333, -0.91204137, -0.43200296, -0.66695893, 1.45947552, -0.11119786, 15.00170898, -60.95701218, 38.53058243, -1.26344442, -0.59833020, -2.24016881, 0.99973345, 0.01112521, 0.00500456, 0.01960401, -0.00398723, 0.93360251, -0.56771147, 87.58400726, 1212.31579590, 35.54000092, 0.00000000
1, 1.6400, 164, -0.00569288, -0.91058064, -0.43124726, -0.91019917, 0.30511811, 0.05863889, 15.00170898, -60.95701218, 38.53058243, -1.27253723, -0.59759313, -2.23702860, 0.99973309, 0.01120428, 0.00499688, 0.01957694, -0.00473203, 0.93272769, -0.56845307, 87.58400726, 1212.31579590, 35.54000092, 0.00000000
1, 1.6500, 165, -0.00416799, -0.90770739, -0.43028697, -0.93426776, -1.25893104, 0.20161340, 15.62330818, -61.66067886, 38.39736176, -1.28192508, -0.60465711, -2.24751449, 0.99973011, 0.01128784, 0.00505587, 0.01966952, -0.00632635, 0.93002033, -0.56940901, 87.58400726, 1212.31579590, 35.54000092, 0.00000000
1, 1.6600, 166, -0.00282550, -0.90646291, -0.42669421, -0.76060927, -2.57814145, 0.15576892, 15.25766277, -61.17690277, 38.35929489, -1.28957248, -0.61679244, -2.27021241, 0.99972486, 0.01135765, 0.00515818, 0.01986906, -0.00785491, 0.92891699, -0.57299662, 87.58400726, 1212.31579590, 35.54000092, 0.00000000
1, 1.6700, 167, -0.00147339, -0.90306097, -0.42459360, -0.68138254, -3.40091205, 0.13822873, 14.96514320, -59.85753250, 38.32123184, -1.29646635, -0.63219327, -2.30047417, 0.99971813, 0.01142185, 0.00528833, 0.02013488, -0.00946069, 0.92564577, -0.57509154, 87.58400726, 1212.31579590, 35.54000092, 0.00000000
1, 1.6800, 168, -0.00028040, -0.90136951, -0.42244542, -0.40585622, -3.63378239, -0.18391962, 15.22109699, -59.81355286, 38.28316879, -1.31451941, -0.64848173, -2.36088967, 0.99970472, 0.01158505, 0.00542115, 0.02066440, -0.01091685, 0.92410940, -0.57723325, 87.58400726, 1212.31579590, 35.54000092, 0.00000000
1, 1.6900, 169, 0.00029874, -0.89769548, -0.42093587, -0.06330765, -3.40353870, -0.46138015, 15.22109699, -59.81355286, 38.28316879, -1.31520867, -0.65845490, -2.39374781, 0.99969816, 0.01159443, 0.00550471, 0.02095208, -0.01172899, 0.92064458, -0.57873541, 87.58400726, 1212.31579590, 35.54000092, 0.00000000
1, 1.7000, 170, 0.00177784, -0.89781076, -0.41996670, -0.24466477, -2.69652414, -0.76237059, 15.29422855, -59.41773987, 38.13091278, -1.31770957, -0.66274780, -2.42140627, 0.99969250, 0.01161836, 0.00553890, 0.02119392, -0.01333038, 0.92078698, -0.57970256, 87.58400726, 1212.31579590, 35.54000092, 0.00000000
1, 1.7100, 171, 0.00312607, -0.90232337, -0.42456886, -0.42906085, -1.62901473, -1.07335114, 15.07484055, -59.54967499, 38.58768082, -1.32203901, -0.65977067, -2.44062853, 0.99968874, 0.01165651, 0.00551017, 0.02136152, -0.01466445, 0.92536217, -0.57509917, 87.58400726, 1212.31579590, 35.54000092, 0.00000000
1, 1.7200, 172, 0.00229761, -0.90824252, -0.42898944, -0.50842762, -0.73706013, -1.08951271, 14.78232574, -61.00099564, 38.45445633, -1.32714641, -0.65293300, -2.45179892, 0.99968642, 0.01170033, 0.00544843, 0.02145853, -0.01374158, 0.93136871, -0.57067758, 87.58400726, 1212.31579590, 35.54000092, 0.00000000
1, 1.7300, 173, 0.00189943, -0.91485131, -0.43177956, -0.40365088, -0.42746612, -1.08332443, 14.74575996, -59.32978439, 38.07381439, -1.35394454, -0.64831972, -2.48726916, 0.99967724, 0.01193493, 0.00539947, 0.02176877, -0.01322332, 0.93815809, -0.56788462, 87.58400726, 1212.31579590, 35.54000092, 0.00000000
1, 1.7400, 174, -0.00004033, -0.91989821, -0.43451378, -0.11441808, -0.73453808, -1.05550861, 14.48980618, -58.93396759, 38.20703888, -1.35510242, -0.64178783, -2.49833274, 0.99967533, 0.01194431, 0.00534111, 0.02186468, -0.01120117, 0.94353795, -0.56514353, 87.58400726, 1212.31579590, 35.54000092, 0.00000000
1, 1.7500, 175, -0.00123088, -0.92419499, -0.43575755, 0.12339617, -1.19526100, -1.10107911, 14.48980618, -58.93396759, 38.20703888, -1.35390198, -0.63676244, -2.51380301, 0.99967277, 0.01193360, 0.00529589, 0.02199907, -0.00990923, 0.94782895, -0.56390107, 87.58400726, 1212.31579590, 35.54000092, 0.00000000
1, 1.7600, 176, -0.00390697, -0.92413700, -0.43415564, 0.16349979, -1.84879065, -0.99189329, 15.33078861, -59.19784164, 37.97865677, -1.35231137, -0.63545501, -2.53476453, 0.99966902, 0.01192044, 0.00528261, 0.02218173, -0.00719189, 0.94774342, -0.56550407, 87.58400726, 1212.31579590, 35.54000092, 0.00000000
1, 1.7700, 177, -0.00706782, -0.92239857, -0.43325466, 0.11116517, -2.09021139, -0.94407380, 14.85545158, -60.69313812, 38.34026337, -1.35125947, -0.63558692, -2.55771351, 0.99966460, 0.01191235, 0.00528158, 0.02238189, -0.00402737, 0.94598496, -0.56640553, 87.58400726, 1212.31579590, 35.54000092, 0.00000000
1, 1.7800, 178, -0.00975939, -0.91642314, -0.42988744, 0.03977254, -2.31576586, -0.82554924, 14.74575996, -60.25334549, 37.65511322, -1.36782968, -0.65126044, -2.60909581, 0.99965191, 0.01206237, 0.00540966, 0.02283251, -0.00141430, 0.94006878, -0.56977051, 87.58400726, 1212.31579590, 35.54000092, 0.00000000
1, 1.7900, 179, -0.01336894, -0.90981430, -0.42892569, -0.28299555, -2.31829810, -0.82461488, 14.78232574, -59.19784164, 37.78833771, -1.37072182, -0.65343499, -2.63356709, 0.99964660, 0.01208919, 0.00542548, 0.02304635, 0.00198155, 0.93371201, -0.57072389, 87.58400726, 1212.31579590, 35.54000092, 0.00000000
1, 1.8000, 180, -0.01417134, -0.90361965, -0.42612088, -0.39094624, -2.44093084, -0.72139293, 14.78232574, -59.19784164, 37.78833771, -1.37467492, -0.65706122, -2.65870643, 0.99964094, 0.01212560, 0.00545366, 0.02326622, 0.00272879, 0.92758250, -0.57352650, 87.58400726, 1212.31579590, 35.54000092, 0.00000000
1, 1.8100, 181, -0.01101810, -0.90004885, -0.42141479, -0.64297450, -2.49607825, -0.61631131, 15.22109699, -60.34130478, 38.28316879, -1.38115454, -0.66187394, -2.68387818, 0.99963486, 0.01218430, 0.00549165, 0.02348661, -0.00049948, 0.92410421, -0.57822955, 87.58400726, 1212.31579590, 35.54000092, 0.00000000
1, 1.8200, 182, -0.01013782, -0.89591992, -0.42340630, -0.64318454, -2.39230204, -0.66686380, 15.25766277, -60.78109741, 37.88349915, -1.38762128, -0.66579670, -2.70831442, 0.99962896, 0.01224269, 0.00552193, 0.02370050, -0.00145913, 0.92009145, -0.57623428, 87.58400726, 1212.31579590, 35.54000092, 0.00000000
1, 1.8300, 183, -0.00734269, -0.89459920, -0.42336631, -0.62988687, -1.96420169, -0.60516930, 14.70919418, -59.37376022, 37.86446381, -1.41157830, -0.67810744, -2.75540662, 0.99961585, 0.01245652, 0.00561925, 0.02411376, -0.00435438, 0.91895390, -0.57626861, 87.58400726, 1212.31579590, 35.54000092, 0.00000000
1, 1.8400, 184, -0.00482342, -0.89573550, -0.42636222, -0.52447397, -1.42846978, -0.78759015, 14.16072655, -59.32978439, 38.07381439, -1.41684711, -0.67691875, -2.77160454, 0.99961191, 0.01250303, 0.00560600, 0.02425519, -0.00700618, 0.92042732, -0.57326287, 87.58400726, 1212.31579590, 35.54000092, 0.00000000
1, 1.8500, 185, -0.00319832, -0.89999592, -0.43123645, -0.25731042, -1.01240039, -0.92028666, 14.16072655, -59.32978439, 38.07381439, -1.41944087, -0.67278790, -2.78461432, 0.99960905, 0.01252541, 0.00556800, 0.02436836, -0.00857404, 0.92474854, -0.56838787, 87.58400726, 1212.31579590, 35.54000092, 0.00000000
1, 1.8600, 186, -0.00193784, -0.90358526, -0.43450987, -0.13727479, -0.46309996, -0.87394905, 15.55017757, -60.16538239, 38.13091278, -1.42081618, -0.66678375, -2.79245639, 0.99960762, 0.01253652, 0.00551447, 0.02443620, -0.00974191, 0.92837262, -0.56511462, 87.58400726, 1212.31579590, 35.54000092, 0.00000000
1, 1.8700, 187, -0.00052963, -0.90699714, -0.43728811, 0.07702019, -0.44511867, -0.82149178, 15.25766277, -60.86905289, 38.37833023, -1.42005455, -0.66118151, -2.79994416, 0.99960637, 0.01252904, 0.00546495, 0.02450088, -0.01104741, 0.93178523, -0.56233758, 87.58400726, 1212.31579590, 35.54000092, 0.00000000
1, 1.8800, 188, -0.00170678, -0.90884221, -0.43737572, 0.25479466, -0.46287039, -0.69936079, 15.76956558, -62.89209366, 37.75027084, -1.46036220, -0.66952896, -2.83301258, 0.99959433, 0.01288402, 0.00552543, 0.02479218, -0.00983660, 0.93378294, -0.56224656, 87.58400726, 1212.31579590, 35.54000092, 0.00000000
1, 1.8900, 189, -0.00256387, -0.90908366, -0.43440229, 0.43142667, -0.51664698, -0.47251388, 14.78232574, -60.64915848, 37.65511322, -1.45605075, -0.66740113, -2.83973980, 0.99959350, 0.01284628, 0.00550704, 0.02485042, -0.00909190, 0.93452382, -0.56520611, 87.58400726, 1212.31579590, 35.54000092, 0.00000000
1, 1.9000, 190, -0.00347273, -0.91031134, -0.43079033, 0.51663285, -0.53854084, -0.13924703, 14.78232574, -60.64915848, 37.65511322, -1.45089853, -0.66839164, -2.84528327, 0.99959284, 0.01280182, 0.00551618, 0.02489864, -0.00818702, 0.93566829, -0.56882012, 87.58400726, 1212.31579590, 35.54000092, 0.00000000
1, 1.9100, 191, -0.00223354, -0.91135740, -0.42899972, 0.44084913, -0.33584926, 0.02345103, 14.70919418, -59.68161774, 37.80736542, -1.44650769, -0.67001116, -2.84829473, 0.99959254, 0.01276401, 0.00553093, 0.02492487, -0.00944926, 0.93662483, -0.57061273, 87.58400726, 1212.31579590, 35.54000092, 0.00000000
1, 1.9200, 192, -0.00453729, -0.91245323, -0.42537129, 0.25982460, -0.63401109, 0.33414593, 15.03827477, -59.98946762, 38.14994431, -1.44391596, -0.67569929, -2.85269094, 0.99959165, 0.01274285, 0.00558062, 0.02496371, -0.00721270, 0.93766063, -0.57424188, 87.58400726, 1212.31579590, 35.54000092, 0.00000000
1, 1.9300, 193, -0.00558425, -0.91261607, -0.42569157, 0.11252439, -0.53565854, 0.54760414, 14.74575996, -59.46171951, 37.73123932, -1.46317244, -0.70623875, -2.88288832, 0.99958110, 0.01291898, 0.00583942, 0.02523142, -0.00638945, 0.93788850, -0.57391727, 87.58400726, 1212.31579590, 35.54000092, 0.00000000
1, 1.9400, 194, -0.00753774, -0.91302913, -0.42448515, 0.32626432, -0.48365822, 0.61835665, 14.48980618, -59.63763428, 37.86446381, -1.45991087, -0.71387982, -2.88473558, 0.99958068, 0.01289229, 0.00590658, 0.02524821, -0.00486829, 0.93852842, -0.57511270, 87.58400726, 1212.31579590, 35.54000092, 0.00000000
1, 1.9500, 195, -0.00742383, -0.91172773, -0.42573607, 0.21631481, -0.27924216, 0.65814722, 14.48980618, -59.63763428, 37.86446381, -1.45774126, -0.72102720, -2.88454604, 0.99958056, 0.01287492, 0.00596943, 0.02524723, -0.00510816, 0.93717796, -0.57386148, 87.58400726, 1212.31579590, 35.54000092, 0.00000000
1, 1.9600, 196, -0.00735159, -0.90959948, -0.42725846, -0.01886460, 0.08056985, 0.57853991, 15.36735439, -59.32978439, 37.86446381, -1.45792723, -0.72594374, -2.88139224, 0.99958092, 0.01287745, 0.00601263, 0.02522027, -0.00529170, 0.93503875, -0.57233799, 87.58400726, 1212.31579590, 35.54000092, 0.00000000
1, 1.9700, 197, -0.00724160, -0.90937752, -0.42968637, -0.05292755, 0.15176506, 0.40435776, 15.07484055, -61.35282516, 38.30220032, -1.45845509, -0.72898012, -2.87831402, 0.99958134, 0.01288256, 0.00603935, 0.02519378, -0.00546927, 0.93481904, -0.56990910, 87.58400726, 1212.31579590, 35.54000092, 0.00000000
1, 1.9800, 198, -0.00542226, -0.91116118, -0.43287921, -0.28439921, 0.48128331, 0.07800598, 15.03827477, -59.54967499, 38.26413727, -1.51788771, -0.75015092, -2.89997458, 0.99956852, 0.01340679, 0.00620842, 0.02538826, -0.00738493, 0.93689293, -0.56670749, 87.58400726, 1212.31579590, 35.54000092, 0.00000000
1, 1.9900, 199, -0.00208898, -0.91260803, -0.43276086, -0.13803655, 0.48584735, -0.13328567, 15.80613136, -61.52874374, 37.92155838, -1.51926029, -0.74690199, -2.89610434, 0.99956942, 0.01341784, 0.00618023, 0.02535421, -0.01096784, 0.93911457, -0.56680250, 87.58400726, 1212.31579590, 35.54000092, 0.00000000
1, 2.0000, 200, 0.00088630, -0.90959519, -0.43156835, 0.15207480, 0.40520000, -0.31165197, 15.80613136, -61.52874374, 37.92155838, -1.51773429, -0.74237317, -2.89375472, 0.99957037, 0.01340340, 0.00614133, 0.02533311, -0.01387108, 0.93609166, -0.56799626, 87.58400726, 1212.31579590, 35.54000092, 0.00000000
1, 2.0100, 201, 0.00371720, -0.90980279, -0.42926204, 0.04220027, 0.33230621, -0.10190850, 15.44048595, -59.32978439, 38.14994431, -1.51730192, -0.74005455, -2.89117241, 0.99957108, 0.01339898, 0.00612150, 0.02531030, -0.01665106, 0.93628472, -0.57030362, 87.58400726, 1212.31579590, 35.54000092, 0.00000000
1, 2.0200, 202, 0.00516547, -0.90821856, -0.42781952, 0.07874230, 0.17735295, -0.05254310, 14.70919418, -59.76956940, 38.13091278, -1.51650417, -0.73883343, -2.88979459, 0.99957162, 0.01339168, 0.00611119, 0.02529810, -0.01806483, 0.93468815, -0.57174689, 87.58400726, 1212.31579590, 35.54000092, 0.00000000
1, 2.0300, 203, 0.00736890, -0.90729034, -0.42661959, 0.38341179, -0.09785179, 0.13410020, 14.81888676, -59.06590652, 37.97865677, -1.54870629, -0.70583010, -2.91456819, 0.99956423, 0.01366660, 0.00581324, 0.02551207, -0.02012713, 0.93387681, -0.57294548, 87.58400726, 1212.31579590, 35.54000092, 0.00000000
1, 2.0400, 204, 0.00750724, -0.90681672, -0.42556855, 0.63509482, -0.11246187, 0.09786630, 15.29422855, -61.13293076, 38.35929489, -1.54235077, -0.70719290, -2.91526198, 0.99956477, 0.01361150, 0.00582646, 0.02551796, -0.01984380, 0.93377173, -0.57399195, 87.58400726, 1212.31579590, 35.54000092, 0.00000000
1, 2.0500, 205, 0.00496772, -0.90566570, -0.42749569, 0.90456975, -0.05774707, 0.02787884, 15.11140537, -61.13293076, 38.14994431, -1.53330123, -0.70769143, -2.91579103, 0.99956572, 0.01353270, 0.00583276, 0.02552217, -0.01731973, 0.93248862, -0.57206821, 87.58400726, 1212.31579590, 35.54000092, 0.00000000
1, 2.0600, 206, 0.00201476, -0.90676999, -0.42393595, 0.88602936, 0.06275477, -0.00468764, 15.11140537, -62.14445114, 38.14994431, -1.52444541, -0.70738846, -2.91536045, 0.99956685, 0.01345536, 0.00583214, 0.02551793, -0.01436703, 0.93342823, -0.57563233, 87.58400726, 1212.31579590, 35.54000092, 0.00000000
1, 2.0700, 207, 0.00200801, -0.90665722, -0.42335060, 0.43970138, -0.12915634, -0.02493493, 14.74575996, -61.35282516, 37.88349915, -1.52005017, -0.70770580, -2.91669703, 0.99956709, 0.01341716, 0.00583573, 0.02552940, -0.01435763, 0.93320590, -0.57622057, 87.58400726, 1212.31579590, 35.54000092, 0.00000000
1, 2.0800, 208, 0.00054636, -0.90971524, -0.42412695, 0.22610146, -0.25034082, -0.06198574, 14.85545158, -59.85753250, 37.95962524, -1.55106866, -0.71109480, -2.94573259, 0.99955666, 0.01368996, 0.00585492, 0.02578464, -0.01291673, 0.93636054, -0.57544142, 87.58400726, 1212.31579590, 35.54000092, 0.00000000
1, 2.0900, 209, 0.00079369, -0.91025043, -0.42674342, 0.26597351, -0.60940802, -0.12239163, 14.78232574, -60.16538239, 38.22607422, -1.54842293, -0.71254432, -2.95181179, 0.99955553, 0.01366752, 0.00586743, 0.02583770, -0.01321653, 0.93728763, -0.57281387, 87.58400726, 1212.31579590, 35.54000092, 0.00000000
1, 2.1000, 210, -0.00071457, -0.91202033, -0.42806485, 0.21582146, -0.84824967, -0.23272941, 15.29422855, -60.60517502, 37.69317627, -1.54627883, -0.71399516, -2.96051693, 0.99955380, 0.01364959, 0.00587953, 0.02591370, -0.01174017, 0.93901539, -0.57149315, 87.58400726, 1212.31579590, 35.54000092, 0.00000000
1, 2.1100, 211, -0.00086896, -0.91010737, -0.43165272, 0.30759686, -1.05309308, -0.25489509, 15.29422855, -60.60517502, 37.69317627, -1.54322290, -0.71610481, -2.97118640, 0.99955165, 0.01362396, 0.00589736, 0.02600685, -0.01161437, 0.93706179, -0.56790596, 87.58400726, 1212.31579590, 35.54000092, 0.00000000
1, 2.1200, 212, -0.00020652, -0.91063404, -0.42851087, 0.01959798, -0.93527454, -0.25153691, 14.59950256, -60.60517502, 37.84543228, -1.54304767, -0.71774882, -2.98073411, 0.99954939, 0.01362329, 0.00591060, 0.02609031, -0.01231246, 0.93755949, -0.57104820, 87.58400726, 1212.31579590, 35.54000092, 0.00000000
1, 2.1300, 213, -0.00003927, -0.91170180, -0.42436296, 0.01973800, -1.00445879, -0.21783520, 14.63606358, -59.10988617, 37.61705017, -1.55423355, -0.72485989, -3.01823449, 0.99953896, 0.01372443, 0.00596559, 0.02641882, -0.01253336, 0.93867445, -0.57519418, 87.58400726, 1212.31579590, 35.54000092, 0.00000000
1, 2.1400, 214, -0.00146067, -0.91234672, -0.42342928, -0.01794656, -0.88553035, -0.16248463, 15.47705078, -58.75804901, 37.57898331, -1.55442035, -0.72710484, -3.02695084, 0.99953681, 0.01372702, 0.00598409, 0.02649513, -0.01121699, 0.93947208, -0.57612228, 87.58400726, 1212.31579590, 35.54000092, 0.00000000
1, 2.1500, 215, -0.00043558, -0.91320789, -0.42591652, 0.15801777, -0.48932308, -0.17227158, 14.96514320, -61.22089005, 38.30220032, -1.55284452, -0.72759759, -3.03213620, 0.99953580, 0.01371366, 0.00598813, 0.02654033, -0.01226065, 0.94032192, -0.57363522, 87.58400726, 1212.31579590, 35.54000092, 0.00000000
1, 2.1600, 216, -0.00029838, -0.90946746, -0.42714968, 0.49430987, -0.11043530, -0.09502169, 14.96514320, -61.22089005, 38.30220032, -1.54791617, -0.72720063, -3.03360343, 0.99953610, 0.01367066, 0.00598563, 0.02655283, -0.01239718, 0.93652177, -0.57240367, 87.58400726, 1212.31579590, 35.54000092, 0.00000000
1, 2.1700, 217, 0.00085097, -0.90749133, -0.42767680, 0.96018076, 0.06618302, -0.18062557, 15.14796638, -60.07742691, 38.60671234, -1.53830624, -0.72528666, -3.03389072, 0.99953723, 0.01358641, 0.00597113, 0.02655461, -0.01352431, 0.93440795, -0.57188058, 87.58400726, 1212.31579590, 35.54000092, 0.00000000
1, 2.1800, 218, 0.00276785, -0.90469432, -0.42535898, 1.10299194, 0.08388817, -0.14553370, 14.78232574, -59.37376022, 38.07381439, -1.55092883, -0.71362132, -3.05984783, 0.99953032, 0.01369516, 0.00586335, 0.02678032, -0.01536251, 0.93151760, -0.57420188, 87.58400726, 1212.31579590, 35.54000092, 0.00000000
1, 2.1900, 219, 0.00530748, -0.90383166, -0.42354047, 0.79994434, -0.14177611, -0.13177244, 14.85545158, -60.12141037, 37.82640076, -1.54293132, -0.71302325, -3.06179452, 0.99953091, 0.01362536, 0.00585977, 0.02679682, -0.01775285, 0.93080318, -0.57601827, 87.58400726, 1212.31579590, 35.54000092, 0.00000000
1, 2.2000, 220, 0.00709462, -0.90589577, -0.42242807, 0.87334061, -0.48598811, -0.03376378, 15.22109699, -60.38528061, 37.95962524, -1.53419983, -0.71476030, -3.06646466, 0.99953079, 0.01354984, 0.00587641, 0.02683731, -0.01955814, 0.93272144, -0.57713437, 87.58400726, 1212.31579590, 35.54000092, 0.00000000
1, 2.2100, 221, 0.00855715, -0.90705150, -0.42122042, 0.66357201, -0.75868207, -0.24979471, 15.22109699, -60.38528061, 37.95962524, -1.52756953, -0.71567941, -3.07448840, 0.99952954, 0.01349263, 0.00588504, 0.02690706, -0.02104403, 0.93374527, -0.57834524, 87.58400726, 1212.31579590, 35.54000092, 0.00000000
1, 2.2200, 222, 0.00667954, -0.90894383, -0.41891611, 0.59429204, -0.94706571, -0.30627814, 15.44048595, -59.90151215, 38.16897583, -1.52162409, -0.71687478, -3.08445096, 0.99952787, 0.01344157, 0.00589569, 0.02699379, -0.01918461, 0.93553340, -0.58065212, 87.58400726, 1212.31579590, 35.54000092, 0.00000000
1, 2.2300, 223, 0.00576592, -0.90792060, -0.41891873, 0.52312094, -0.98164749, -0.32436576, 14.96514320, -59.98946762, 37.94059372, -1.52355886, -0.71066421, -3.12121415, 0.99951923, 0.01345886, 0.00583675, 0.02731384, -0.01825526, 0.93444562, -0.58065140, 87.58400726, 1212.31579590, 35.54000092, 0.00000000
1, 2.2400, 224, 0.00350043, -0.90784585, -0.42195827, 0.48912773, -0.94504428, -0.48169696, 15.29422855, -60.07742691, 37.97865677, -1.51868343, -0.71025836, -3.13187981, 0.99951732, 0.01341678, 0.00583312, 0.02740658, -0.01590027, 0.93437237, -0.57761294, 87.58400726, 1212.31579590, 35.54000092, 0.00000000
1, 2.2500, 225, 0.00298169, -0.90834683, -0.42553666, 0.52388090, -0.87672490, -0.44521043, 14.96514320, -60.12141037, 37.80736542, -1.51345742, -0.70989609, -3.14177561, 0.99951565, 0.01337162, 0.00583006, 0.02749259, -0.01537196, 0.93479067, -0.57403690, 87.58400726, 1212.31579590, 35.54000092, 0.00000000
1, 2.2600, 226, 0.00123293, -0.91023266, -0.42747691, 0.36528781, -0.99605477, -0.57028198, 14.96514320, -60.12141037, 37.80736542, -1.50982082, -0.70889771, -3.15325880, 0.99951333, 0.01334024, 0.00582088, 0.02759245, -0.01360879, 0.93659449, -0.57209897, 87.58400726, 1212.31579590, 35.54000092, 0.00000000
1, 2.2700, 227, -0.00037632, -0.91362482, -0.42847264, 0.25931489, -1.25505018, -0.52266788, 15.29422855, -59.54967499, 38.11188126, -1.50723195, -0.70941651, -3.16688037, 0.99951029, 0.01331848, 0.00582445, 0.02771119, -0.01200513, 0.93994337, -0.57110429, 87.58400726, 1212.31579590, 35.54000092, 0.00000000
1, 2.2800, 228, -0.00074813, -0.91555065, -0.42849049, 0.04533242, -1.30733693, -0.57584733, 15.69643497, -60.82507324, 38.30220032, -1.52309716, -0.71293128, -3.20799589, 0.99949825, 0.01345980, 0.00584644, 0.02807102, -0.01165262, 0.94191998, -0.57108486, 87.58400726, 1212.31579590, 35.54000092, 0.00000000
1, 2.2900, 229, -0.00040125, -0.91559613, -0.42916396, 0.11414361, -1.06749499, -0.51828051, 15.29422855, -61.26486588, 38.43542480, -1.52195692, -0.71270663, -3.21987605, 0.99949551, 0.01345041, 0.00584337, 0.02817456, -0.01204224, 0.94216573, -0.57040560, 87.58400726, 1212.31579590, 35.54000092, 0.00000000
1, 2.3000, 230, -0.00152169, -0.91442728, -0.42695248, 0.32404700, -0.62126750, -0.42164990, 14.70919418, -60.07742691, 37.73123932, -1.51872349, -0.71148676, -3.22732830, 0.99949414, 0.01342229, 0.00583265, 0.02823926, -0.01090389, 0.94095576, -0.57261837, 87.58400726, 1212.31579590, 35.54000092, 0.00000000
1, 2.3100, 231, -0.00183853, -0.91145927, -0.42795002, 0.44666931, -0.32897204, -0.39830163, 14.70919418, -60.07742691, 37.73123932, -1.51426089, -0.70925277, -3.23204470, 0.99949354, 0.01338305, 0.00581371, 0.02827991, -0.01055758, 0.93791538, -0.57162309, 87.58400726, 1212.31579590, 35.54000092, 0.00000000
1, 2.3200, 232, -0.00065439, -0.90818375, -0.42769822, 0.92766386, -0.08618091, -0.32435584, 14.70919418, -59.10988617, 38.11188126, -1.50497901, -0.70667291, -3.23431206, 0.99949425, 0.01330158, 0.00579324, 0.02829893, -0.01169545, 0.93450898, -0.57187891, 87.58400726, 1212.31579590, 35.54000092, 0.00000000
1, 2.3300, 233, -0.00091559, -0.90692145, -0.42479980, 0.94415671, -0.03572811, -0.25303236, 15.47705078, -58.80202866, 38.72090530, -1.51995420, -0.71006113, -3.26317096, 0.99948514, 0.01343449, 0.00581571, 0.02855178, -0.01141765, 0.93318450, -0.57477915, 87.58400726, 1212.31579590, 35.54000092, 0.00000000
1, 2.3400, 234, -0.00094447, -0.90656793, -0.42205918, 0.55160725, -0.27924857, -0.23937258, 15.91582298, -60.78109741, 38.37833023, -1.51443660, -0.70906174, -3.26678491, 0.99948502, 0.01338630, 0.00580794, 0.02858292, -0.01143490, 0.93302923, -0.57751405, 87.58400726, 1212.31579590, 35.54000092, 0.00000000
1, 2.3500, 235, -0.00050478, -0.90661210, -0.42273161, 0.31676683, -0.38714617, -0.04756103, 15.11140537, -61.08895111, 38.22607422, -1.51127255, -0.71025479, -3.27054214, 0.99948436, 0.01335919, 0.00581870, 0.02861566, -0.01187807, 0.93299687, -0.57684356, 87.58400726, 1212.31579590, 35.54000092, 0.00000000
1, 2.3600, 236, -0.00014611, -0.90899414, -0.42409858, 0.13663730, -0.40685195, 0.02288911, 15.11140537, -61.08895111, 38.22607422, -1.50990093, -0.71216905, -3.27415872, 0.99948353, 0.01334789, 0.00583532, 0.02864735, -0.01226783, 0.93535113, -0.57547700, 87.58400726, 1212.31579590, 35.54000092, 0.00000000
1, 2.3700, 237, 0.00119560, -0.91121811, -0.42489985, 0.24462551, -0.42287409, 0.00464351, 15.55017757, -59.46171951, 37.67414474, -1.50746095, -0.71398491, -3.27801061, 0.99948269, 0.01332725, 0.00585132, 0.02868103, -0.01364334, 0.93753242, -0.57467639, 87.58400726, 1212.31579590, 35.54000092, 0.00000000
1, 2.3800, 238, 0.00114609, -0.91255015, -0.42752525, 0.40462476, -0.45791936, 0.12646531, 15.55017757, -60.12141037, 38.14994431, -1.52550507, -0.71421021, -3.30807376, 0.99947304, 0.01348623, 0.00584523, 0.02894419, -0.01362361, 0.93891430, -0.57204926, 87.58400726, 1212.31579590, 35.54000092, 0.00000000
1, 2.3900, 239, 0.00101499, -0.91348082, -0.42857948, 0.61931854, -0.45680416, 0.16098842, 14.92858315, -62.27638626, 38.14994431, -1.51931119, -0.71758997, -3.31162786, 0.99947268, 0.01343323, 0.00587586, 0.02897526, -0.01352152, 0.94003558, -0.57098961, 87.58400726, 1212.31579590, 35.54000092, 0.00000000
1, 2.4000, 240, 0.00092060, -0.91386181, -0.42769095, 0.62117249, -0.47195110, 0.03761616, 15.29422855, -60.60517502, 37.78833771, -1.51309991, -0.71991330, -3.31583738, 0.99947214, 0.01337986, 0.00589720, 0.02901192, -0.01346918, 0.94030887, -0.57188046, 87.58400726, 1212.31579590, 35.54000092, 0.00000000
1, 2.4100, 241, 0.00100424, -0.91607964, -0.42613673, 0.53146082, -0.38603106, -0.01303791, 14.81888676, -61.39680099, 38.43542480, -1.50779116, -0.72141558, -3.31946850, 0.99947178, 0.01333412, 0.00591122, 0.02904349, -0.01359060, 0.94242334, -0.57343698, 87.58400726, 1212.31579590, 35.54000092, 0.00000000
1, 2.4200, 242, -0.00027785, -0.91599810, -0.42473483, 0.38552424, -0.06068075, -0.04090786, 14.81888676, -61.39680099, 38.43542480, -1.50394320, -0.72130013, -3.32024240, 0.99947208, 0.01330057, 0.00591110, 0.02905002, -0.01231163, 0.94226718, -0.57484078, 87.58400726, 1212.31579590, 35.54000092, 0.00000000
1, 2.4300, 243, -0.00094164, -0.91430300, -0.42260689, 0.49158365, 0.21575393, -0.10573395, 15.58674240, -59.10988617, 37.78833771, -1.51012957, -0.72832978, -3.34724474, 0.99946398, 0.01335771, 0.00596770, 0.02928665, -0.01166923, 0.94053632, -0.57696939, 87.58400726, 1212.31579590, 35.54000092, 0.00000000
1, 2.4400, 244, -0.00079886, -0.91117978, -0.42335218, 0.66765535, 0.43871409, -0.01369366, 15.47705078, -59.41773987, 37.67414474, -1.50345445, -0.72636729, -3.34340811, 0.99946588, 0.01329879, 0.00595273, 0.02925262, -0.01189146, 0.93746281, -0.57622182, 87.58400726, 1212.31579590, 35.54000092, 0.00000000
1, 2.4500, 245, -0.00152935, -0.90949953, -0.42427114, 0.82868928, 0.61294067, -0.09841508, 15.47705078, -60.56120300, 38.28316879, -1.49516296, -0.72290713, -3.33836818, 0.99946833, 0.01322533, 0.00592525, 0.02920784, -0.01111273, 0.93564725, -0.57530701, 87.58400726, 1212.31579590, 35.54000092, 0.00000000
1, 2.4600, 246, -0.00222165, -0.90918607, -0.42350727, 0.63212091, 0.45615855, -0.04837482, 15.51361179, -60.91303253, 38.20703888, -1.48884773, -0.72055823, -3.33451343, 0.99947023, 0.01316946, 0.00590682, 0.02917363, -0.01036704, 0.93520641, -0.57607496, 87.58400726, 1212.31579590, 35.54000092, 0.00000000
1, 2.4700, 247, 0.00005568, -0.90814000, -0.42393640, 0.38316411, 0.14457941, -0.00142871, 15.51361179, -60.91303253, 38.20703888, -1.48500907, -0.71994054, -3.33325863, 0.99947095, 0.01313575, 0.00590255, 0.02916242, -0.01262250, 0.93407339, -0.57564831, 87.58400726, 1212.31579590, 35.54000092, 0.00000000
1, 2.4800, 248, 0.00100760, -0.90820247, -0.42294186, 0.27797234, -0.20017982, 0.04437995, 15.51361179, -60.34130478, 38.09284973, -1.50093961, -0.71557724, -3.36152244, 0.99946219, 0.01327504, 0.00585717, 0.02940927, -0.01356434, 0.93416524, -0.57664222, 87.58400726, 1212.31579590, 35.54000092, 0.00000000
1, 2.4900, 249, 0.00134554, -0.91018420, -0.42261392, 0.13565092, -0.46002963, 0.12724397, 14.52637196, -61.04496765, 38.07381439, -1.49960387, -0.71866125, -3.36518574, 0.99946117, 0.01326437, 0.00588398, 0.02944149, -0.01386355, 0.93635738, -0.57696515, 87.58400726, 1212.31579590, 35.54000092, 0.00000000
1, 2.5000, 250, 0.00220978, -0.91048938, -0.42177594, 0.24391423, -0.37170237, 0.02329983, 14.74575996, -59.50569916, 37.65511322, -1.49715996, -0.72043192, -3.36849380, 0.99946052, 0.01324367, 0.00589967, 0.02947043, -0.01478025, 0.93662655, -0.57780343, 87.58400726, 1212.31579590, 35.54000092, 0.00000000
1, 2.5100, 251, 0.00266960, -0.91074669, -0.42441884, 0.24231422, -0.06151969, -0.05806559, 14.89201736, -59.85753250, 37.99768829, -1.49473929, -0.72016317, -3.36932826, 0.99946064, 0.01322254, 0.00589786, 0.02947755, -0.01524270, 0.93684900, -0.57516140, 87.58400726, 1212.31579590, 35.54000092, 0.00000000
1, 2.5200, 252, 0.00159851, -0.91190630, -0.42733109, 0.65470266, 0.08037102, -0.14423597, 14.89201736, -59.85753250, 37.99768829, -1.48818493, -0.71851921, -3.36929178, 0.99946153, 0.01316495, 0.00588521, 0.02947671, -0.01415328, 0.93792176, -0.57225162, 87.58400726, 1212.31579590, 35.54000092, 0.00000000
1, 2.5300, 253, 0.00333660, -0.91067326, -0.42656481, 0.77973372, 0.32350051, -0.26255518, 14.92858315, -61.35282516, 37.90252686, -1.49921083, -0.71170825, -3.39238930, 0.99945468, 0.01326054, 0.00582029, 0.02967796, -0.01582579, 0.93664026, -0.57301998, 87.58400726, 1212.31579590, 35.54000092, 0.00000000
1, 2.5400, 254, 0.00242695, -0.91039586, -0.42564970, 0.67261320, 0.27119806, -0.26332700, 15.58674240, -60.38528061, 38.37833023, -1.49247169, -0.70818335, -3.39112210, 0.99945599, 0.01320079, 0.00579144, 0.02966617, -0.01480820, 0.93647921, -0.57393342, 87.58400726, 1212.31579590, 35.54000092, 0.00000000
1, 2.5500, 255, 0.00216061, -0.91015244, -0.42389709, 0.69328731, -0.00281907, -0.28672951, 15.76956558, -59.85753250, 38.07381439, -1.48554265, -0.70559424, -3.39244246, 0.99945652, 0.01313976, 0.00577050, 0.02967705, -0.01448714, 0.93612212, -0.57568967, 87.58400726, 1212.31579590, 35.54000092, 0.00000000
1, 2.5600, 256, 0.00282831, -0.90922546, -0.42406774, 0.53229076, -0.31570062, -0.11703165, 15.36735439, -61.88057327, 37.88349915, -1.48022842, -0.70585603, -3.39587164, 0.99945629, 0.01309365, 0.00577377, 0.02970672, -0.01514184, 0.93508989, -0.57552195, 87.58400726, 1212.31579590, 35.54000092, 0.00000000
1, 2.5700, 257, 0.00324738, -0.90842968, -0.42387286, 0.58773416, -0.46936697, -0.13801031, 15.36735439, -61.88057327, 37.88349915, -1.47436512, -0.70657033, -3.40079045, 0.99945557, 0.01304294, 0.00578096, 0.02974940, -0.01556601, 0.93419564, -0.57571924, 87.58400726, 1212.31579590, 35.54000092, 0.00000000
1, 2.5800, 258, 0.00538492, -0.90559530, -0.42573681, 0.80177069, -0.50370353, -0.03391723, 15.22109699, -60.38528061, 37.97865677, -1.48875880, -0.70089608, -3.43065953, 0.99944651, 0.01316851, 0.00572430, 0.03001001, -0.01770543, 0.93134034, -0.57385582, 87.58400726, 1212.31579590, 35.54000092, 0.00000000
1, 2.5900, 259, 0.00464483, -0.90355647, -0.42619184, 0.78418422, -0.43408695, -0.10271307, 14.67262936, -59.98946762, 37.88349915, -1.48091924, -0.70178521, -3.43513608, 0.99944615, 0.01310059, 0.00573359, 0.03004876, -0.01689103, 0.92945182, -0.57339787, 87.58400726, 1212.31579590, 35.54000092, 0.00000000
1, 2.6000, 260, 0.00227916, -0.90408838, -0.42360616, 1.07301295, -0.48157498, -0.21006511, 15.80613136, -60.95701218, 38.60671234, -1.47018194, -0.70189840, -3.44053388, 0.99944597, 0.01300724, 0.00573679, 0.03009532, -0.01452825, 0.92981309, -0.57598788, 87.58400726, 1212.31579590, 35.54000092, 0.00000000
1, 2.6100, 261, 0.00077806, -0.90483546, -0.42402792, 0.84007502, -0.44852534, -0.24381408, 15.11140537, -61.66067886, 38.22607422, -1.46178782, -0.70156491, -3.44573998, 0.99944556, 0.01293420, 0.00573549, 0.03014027, -0.01303105, 0.93039799, -0.57557023, 87.58400726, 1212.31579590, 35.54000092, 0.00000000
1, 2.6200, 262, 0.00067437, -0.90542722, -0.42529476, 0.76862371, -0.34473863, -0.32930505, 15.11140537, -61.66067886, 38.22607422, -1.45410693, -0.70001954, -3.45035362, 0.99944532, 0.01286704, 0.00572352, 0.03017995, -0.01290127, 0.93085158, -0.57430720, 87.58400726, 1212.31579590, 35.54000092, 0.00000000
1, 2.6300, 263, -0.00056607, -0.90561241, -0.42829418, 0.85937548, -0.46410465, -0.33209226, 14.78232574, -60.38528061, 38.16897583, -1.47571635, -0.70490485, -3.48095536, 0.99943447, 0.01305833, 0.00575695, 0.03044847, -0.01166666, 0.93102276, -0.57130808, 87.58400726, 1212.31579590, 35.54000092, 0.00000000
1, 2.6400, 264, -0.00226951, -0.90882021, -0.42947423, 0.96729350, -0.44553468, -0.36718866, 15.03827477, -61.39680099, 37.99768829, -1.46604967, -0.70343912, -3.48666978, 0.99943411, 0.01297392, 0.00574609, 0.03049766, -0.01002126, 0.93446815, -0.57012129, 87.58400726, 1212.31579590, 35.54000092, 0.00000000
1, 2.6500, 265, -0.00318856, -0.91010326, -0.42820117, 1.12758386, -0.32419905, -0.36512825, 14.70919418, -60.91303253, 38.16897583, -1.45479631, -0.70148379, -3.49129200, 0.99943435, 0.01287548, 0.00573151, 0.03053720, -0.00906784, 0.93556327, -0.57139951, 87.58400726, 1212.31579590, 35.54000092, 0.00000000
1, 2.6600, 266, -0.00287767, -0.91197914, -0.42488825, 0.99963266, -0.08533161, -0.34213650, 14.74575996, -60.29732513, 37.82640076, -1.44479954, -0.69873619, -3.49363375, 0.99943501, 0.01278768, 0.00570995, 0.03055683, -0.00933240, 0.93725681, -0.57471764, 87.58400726, 1212.31579590, 35.54000092, 0.00000000
1, 2.6700, 267, -0.00413569, -0.91534090, -0.42357230, 0.94459283, -0.19124928, -0.18599011, 14.74575996, -60.29732513, 37.82640076, -1.43535268, -0.69784993, -3.49627423, 0.99943542, 0.01270518, 0.00570444, 0.03057929, -0.00804778, 0.94044751, -0.57603824, 87.58400726, 1212.31579590, 35.54000092, 0.00000000
1, 2.6800, 268, -0.00213903, -0.91487294, -0.42631626, 0.78364509, -0.34803653, -0.11848062, 14.74575996, -59.50569916, 38.01671982, -1.45289969, -0.69955850, -3.52542543, 0.99942553, 0.01286013, 0.00571139, 0.03083460, -0.01004781, 0.93994200, -0.57329512, 87.58400726, 1212.31579590, 35.54000092, 0.00000000
1, 2.6900, 269, 0.00112652, -0.91447997, -0.42892388, 0.70239240, -0.26183084, 0.14835356, 15.36735439, -59.46171951, 38.64477539, -1.44588459, -0.70200330, -3.52727723, 0.99942565, 0.01279970, 0.00573439, 0.03085066, -0.01335951, 0.93974739, -0.57068205, 87.58400726, 1212.31579590, 35.54000092, 0.00000000
1, 2.7000, 270, 0.00344978, -0.91308647, -0.42811930, 0.67464936, 0.20588307, 0.19452667, 15.22109699, -61.44078064, 38.49252319, -1.43914235, -0.70291150, -3.52468538, 0.99942702, 0.01274101, 0.00574442, 0.03082782, -0.01571754, 0.93824762, -0.57148886, 87.58400726, 1212.31579590, 35.54000092, 0.00000000
1, 2.7100, 271, 0.00415494, -0.91160828, -0.42643949, 0.47443300, 0.53023815, 0.20195846, 15.22109699, -60.73711777, 38.35929489, -1.43438661, -0.70252979, -3.51908779, 0.99942905, 0.01269914, 0.00574299, 0.03077872, -0.01641860, 0.93666369, -0.57317132, 87.58400726, 1212.31579590, 35.54000092, 0.00000000
1, 2.7200, 272, 0.00668424, -0.91035706, -0.42412603, 0.07854839, 0.73354942, 0.17228760, 15.22109699, -60.73711777, 38.24510574, -1.43358386, -0.70102739, -3.51171541, 0.99943125, 0.01269137, 0.00573092, 0.03071421, -0.01893077, 0.93536639, -0.57548618, 87.58400726, 1212.31579590, 35.54000092, 0.00000000
1, 2.7300, 273, 0.00580472, -0.90856928, -0.42227674, -0.20762905, 0.73215812, 0.12039908, 15.18453217, -59.94548798, 38.24510574, -1.45740771, -0.69125330, -3.52998638, 0.99942422, 0.01289745, 0.00563723, 0.03087369, -0.01798365, 0.93370736, -0.57733309, 87.58400726, 1212.31579590, 35.54000092, 0.00000000
1, 2.7400, 274, 0.00338182, -0.90773892, -0.41912809, -0.18706259, 0.63138807, -0.00483060, 14.89201736, -59.59365463, 37.76930618, -1.45928001, -0.68856555, -3.52424717, 0.99942571, 0.01291278, 0.00561393, 0.03082344, -0.01541924, 0.93319517, -0.58047539, 87.58400726, 1212.31579590, 35.54000092, 0.00000000
1, 2.7500, 275, 0.00005112, -0.90621954, -0.41604596, -0.04026354, 0.48043099, -0.14907996, 15.47705078, -60.86905289, 38.64477539, -1.45968008, -0.68520081, -3.52050400, 0.99942684, 0.01291518, 0.00558490, 0.03079044, -0.01203029, 0.93169171, -0.58355772, 87.58400726, 1212.31579590, 35.54000092, 0.00000000
1, 2.7600, 276, 0.00073203, -0.90463495, -0.41535026, 0.00444749, -0.16765438, -0.37378165, 15.33078861, -60.60517502, 38.70186996, -1.45963609, -0.68250728, -3.52359176, 0.99942613, 0.01291423, 0.00556107, 0.03081707, -0.01265770, 0.93011010, -0.58425403, 87.58400726, 1212.31579590, 35.54000092, 0.00000000
1, 2.7700, 277, 0.00032163, -0.90569693, -0.41607001, 0.11703732, -0.71569896, -0.38564810, 15.14796638, -61.88057327, 38.56864929, -1.45848703, -0.68200153, -3.53172231, 0.99942410, 0.01290447, 0.00555605, 0.03088787, -0.01222842, 0.93115139, -0.58353508, 87.58400726, 1212.31579590, 35.54000092, 0.00000000
1, 2.7800, 278, 0.00003594, -0.90682286, -0.42041957, 0.17728727, -1.26244617, -0.50279695, 15.14796638, -61.88057327, 38.56864929, -1.46679688, -0.68428093, -3.56997299, 0.99941272, 0.01297941, 0.00556936, 0.03122213, -0.01194772, 0.93230510, -0.57918471, 87.58400726, 1212.31579590, 35.54000092, 0.00000000
1, 2.7900, 279, 0.00116372, -0.90800923, -0.42346185, 0.17812245, -1.43483365, -0.45368889, 15.55017757, -60.47323990, 38.43542480, -1.46504068, -0.68616885, -3.58492708, 0.99940878, 0.01296534, 0.00558461, 0.03135268, -0.01312666, 0.93359023, -0.57613933, 87.58400726, 1212.31579590, 35.54000092, 0.00000000
1, 2.8000, 280, 0.00148448, -0.91273713, -0.42693830, 0.12498522, -1.39980412, -0.52310300, 15.25766277, -61.26486588, 38.28316879, -1.46380782, -0.68727922, -3.59984612, 0.99940473, 0.01295562, 0.00559295, 0.03148286, -0.01347316, 0.93829042, -0.57266331, 87.58400726, 1212.31579590, 35.54000092, 0.00000000
1, 2.8100, 281, 0.00271982, -0.91634256, -0.42722756, 0.22565046, -0.80033213, -0.40533805, 14.85545158, -59.85753250, 37.95962524, -1.46156299, -0.68694979, -3.60884142, 0.99940246, 0.01293639, 0.00558968, 0.03156116, -0.01471412, 0.94186318, -0.57237482, 87.58400726, 1212.31579590, 35.54000092, 0.00000000
1, 2.8200, 282, 0.00237905, -0.91971636, -0.42820928, 0.32656923, 0.09417541, -0.49231079, 14.67262936, -60.34130478, 38.37833023, -1.45829546, -0.68208492, -3.61009049, 0.99940282, 0.01290662, 0.00554801, 0.03157137, -0.01432061, 0.94518512, -0.57139504, 87.58400726, 1212.31579590, 35.54000092, 0.00000000
1, 2.8300, 283, -0.00009778, -0.92003793, -0.42750019, 0.33454287, 0.81072080, -0.23117435, 14.67262936, -60.34130478, 38.37833023, -1.46935868, -0.67865735, -3.62835860, 0.99939668, 0.01300304, 0.00551299, 0.03173085, -0.01175745, 0.94551212, -0.57210499, 87.58400726, 1212.31579590, 35.54000092, 0.00000000
1, 2.8400, 284, -0.00097366, -0.92095226, -0.42834708, 0.18265767, 1.49312723, -0.05815811, 15.25766277, -62.01251602, 38.41639328, -1.46750665, -0.67187780, -3.61506891, 0.99940091, 0.01298439, 0.00545588, 0.03161410, -0.01080015, 0.94656998, -0.57125539, 87.58400726, 1212.31579590, 35.54000092, 0.00000000
1, 2.8500, 285, -0.00213877, -0.91921341, -0.42557818, 0.25506270, 1.33845544, -0.00889652, 15.14796638, -61.17690277, 38.20703888, -1.46491933, -0.66619354, -3.60298634, 0.99940491, 0.01295969, 0.00540839, 0.03150798, -0.00951958, 0.94479084, -0.57402664, 87.58400726, 1212.31579590, 35.54000092, 0.00000000
1, 2.8600, 286, -0.00370883, -0.91556615, -0.42240006, 0.20417194, 0.80400497, 0.12064952, 15.40392017, -60.29732513, 38.03575134, -1.46287596, -0.66392344, -3.59520626, 0.99940741, 0.01294089, 0.00539003, 0.03143978, -0.00788855, 0.94111031, -0.57720637, 87.58400726, 1212.31579590, 35.54000092, 0.00000000
1, 2.8700, 287, -0.00281357, -0.91139936, -0.41894507, 0.24696420, -0.03705911, 0.15557118, 14.96514320, -60.03344727, 38.37833023, -1.46040130, -0.66549188, -3.59492612, 0.99940771, 0.01291972, 0.00540442, 0.03143739, -0.00878514, 0.93689919, -0.58066249, 87.58400726, 1212.31579590, 35.54000092, 0.00000000
1, 2.8800, 288, -0.00206811, -0.90744519, -0.41567791, 0.10931463, -0.86352348, 0.26166508, 14.96514320, -60.03344727, 38.37833023, -1.46195662, -0.67640686, -3.62756300, 0.99939787, 0.01293783, 0.00549550, 0.03172331, -0.00962995, 0.93293083, -0.58392882, 87.58400726, 1212.31579590, 35.54000092, 0.00000000
1, 2.8900, 289, -0.00080338, -0.90611565, -0.41765451, 0.25623217, -0.89297843, 0.03207834, 15.55017757, -62.10047150, 38.14994431, -1.45940995, -0.68043721, -3.63557267, 0.99939579, 0.01291711, 0.00553046, 0.03179348, -0.01104474, 0.93160087, -0.58195043, 87.58400726, 1212.31579590, 35.54000092, 0.00000000
1, 2.9000, 290, 0.00097842, -0.90633810, -0.41932893, 0.07970786, -1.01244879, -0.09294146, 15.98895359, -62.54026413, 38.56864929, -1.45862567, -0.68383133, -3.64516902, 0.99939299, 0.01291168, 0.00555919, 0.03187750, -0.01289228, 0.93179101, -0.58027613, 87.58400726, 1212.31579590, 35.54000092, 0.00000000
1, 2.9100, 291, 0.00199151, -0.90697074, -0.42083004, -0.19100590, -0.63519222, -0.20722993, 15.40392017, -61.57272339, 38.18800735, -1.46053469, -0.68460703, -3.65177894, 0.99939090, 0.01292886, 0.00556468, 0.03193533, -0.01394013, 0.93244278, -0.57877409, 87.58400726, 1212.31579590, 35.54000092, 0.00000000
1, 2.9200, 292, 0.00074008, -0.91098416, -0.42271855, -0.33647859, -0.11858255, -0.38928509, 15.33078861, -60.16538239, 38.28316879, -1.46390152, -0.68156731, -3.65444231, 0.99938989, 0.01295751, 0.00553693, 0.03195839, -0.01266317, 0.93650544, -0.57688457, 87.58400726, 1212.31579590, 35.54000092, 0.00000000
1, 2.9300, 293, 0.00127721, -0.91158319, -0.42290163, -0.39223975, 0.31210715, -0.52068627, 15.33078861, -60.16538239, 38.28316879, -1.47973001, -0.67942357, -3.67975235, 0.99938112, 0.01309618, 0.00551093, 0.03217965, -0.01312713, 0.93722785, -0.57669926, 87.58400726, 1212.31579590, 35.54000092, 0.00000000
1, 2.9400, 294, 0.00011638, -0.91302085, -0.42566299, -0.34131148, 0.70790255, -0.56525594, 15.33078861, -59.24182510, 38.28316879, -1.48312449, -0.67132360, -3.67565060, 0.99938238, 0.01312332, 0.00543980, 0.03214313, -0.01188746, 0.93887728, -0.57393336, 87.58400726, 1212.31579590, 35.54000092, 0.00000000
1, 2.9500, 295, -0.00162629, -0.91520894, -0.42775920, -0.09186453, 0.77733701, -0.49424616, 15.33078861, -61.35282516, 38.39736176, -1.48404956, -0.66357911, -3.67064953, 0.99938405, 0.01312899, 0.00537257, 0.03209870, -0.01000665, 0.94110560, -0.57183778, 87.58400726, 1212.31579590, 35.54000092, 0.00000000
1, 2.9600, 296, 0.00036790, -0.91587067, -0.42448071, 0.08734865, 0.70927322, -0.44349056, 15.80613136, -60.47323990, 38.41639328, -1.48315132, -0.65658009, -3.66608000, 0.99938589, 0.01311900, 0.00531231, 0.03205803, -0.01186905, 0.94176203, -0.57511789, 87.58400726, 1212.31579590, 35.54000092, 0.00000000
1, 2.9700, 297, 0.00054765, -0.91464525, -0.41877779, 0.21225481, 0.29343355, -0.13620567, 15.18453217, -61.26486588, 38.75896835, -1.48103380, -0.65411448, -3.66401434, 0.99938679, 0.01309975, 0.00529163, 0.03203965, -0.01197942, 0.94050813, -0.58082235, 87.58400726, 1212.31579590, 35.54000092, 0.00000000
1, 2.9800, 298, 0.00240493, -0.91247255, -0.41557279, 0.13775839, 0.22024800, 0.10857996, 15.18453217, -61.26486588, 38.75896835, -1.43643475, -0.66327280, -3.68910599, 0.99938428, 0.01271451, 0.00538119, 0.03225740, -0.01385779, 0.93810868, -0.58403283, 87.58400726, 1212.31579590, 35.54000092, 0.00000000
1, 2.9900, 299, -0.00057103, -0.91038752, -0.41522112, -0.22333062, 0.11050597, 0.35347393, 15.51361179, -59.98946762, 38.53058243, -1.43865979, -0.66602075, -3.68659592, 0.99938458, 0.01273457, 0.00540481, 0.03223591, -0.01103167, 0.93547642, -0.58439678, 87.58400726, 1212.31579590, 35.54000092, 0.00000000
1, 3.0000, 300, -0.00173152, -0.91173041, -0.41819718, -0.40182742, -0.11531967, 0.43716386, 15.11140537, -59.63763428, 38.32123184, -1.44269013, -0.67047316, -3.68576050, 0.99938416, 0.01277093, 0.00544260, 0.03222930, -0.00994392, 0.93687999, -0.58141834, 87.58400726, 1212.31579590, 35.54000092, 0.00000000
1, 3.0100, 301, -0.00259147, -0.91239500, -0.42138049, -0.40229619, -0.06386137, 0.43824723, 15.47705078, -59.98946762, 38.34026337, -1.44671297, -0.67471892, -3.68445325, 0.99938381, 0.01280714, 0.00547864, 0.03221855, -0.00915189, 0.93761563, -0.57823247, 87.58400726, 1212.31579590, 35.54000092, 0.00000000
1, 3.0200, 302, -0.00190624, -0.91517955, -0.42400831, -0.36475167, -0.11360557, 0.34919500, 15.40392017, -61.83659363, 38.35929489, -1.45036268, -0.67836428, -3.68397784, 0.99938339, 0.01283997, 0.00550946, 0.03221497, -0.00991157, 0.94046724, -0.57560205, 87.58400726, 1212.31579590, 35.54000092, 0.00000000
1, 3.0300, 303, -0.00164888, -0.91553402, -0.42450032, -0.34614640, -0.02598172, 0.24551041, 15.40392017, -61.83659363, 38.35929489, -1.46765637, -0.69564509, -3.70874500, 0.99937344, 0.01299685, 0.00565250, 0.03243370, -0.01028002, 0.94094384, -0.57510561, 87.58400726, 1212.31579590, 35.54000092, 0.00000000
1, 3.0400, 304, -0.00100120, -0.91490078, -0.42541176, -0.54365748, 0.16287054, 0.14461529, 15.80613136, -61.52874374, 38.53058243, -1.47310102, -0.69627434, -3.70658731, 0.99937338, 0.01304440, 0.00565670, 0.03241522, -0.01115010, 0.94057232, -0.57418478, 87.58400726, 1212.31579590, 35.54000092, 0.00000000
1, 3.0500, 305, -0.00156245, -0.91683644, -0.42497024, -0.65078330, 0.35328591, -0.00925844, 15.33078861, -61.57272339, 38.07381439, -1.47960794, -0.69470775, -3.70333123, 0.99937367, 0.01310055, 0.00564157, 0.03238697, -0.01057596, 0.94260997, -0.57462388, 87.58400726, 1212.31579590, 35.54000092, 0.00000000
1, 3.0600, 306, -0.00018369, -0.91652775, -0.42390683, -0.66899484, 0.49151355, -0.07660986, 15.14796638, -60.82507324, 38.14994431, -1.48630226, -0.69195002, -3.69910145, 0.99937421, 0.01315795, 0.00561611, 0.03235011, -0.01191421, 0.94241816, -0.57568479, 87.58400726, 1212.31579590, 35.54000092, 0.00000000
1, 3.0700, 307, 0.00105659, -0.91313672, -0.42319205, -0.77364165, 0.59817088, -0.35530028, 15.00170898, -60.25334549, 38.22607422, -1.49403310, -0.68621480, -3.69505501, 0.99937487, 0.01322356, 0.00556438, 0.03231456, -0.01307344, 0.93914884, -0.57639730, 87.58400726, 1212.31579590, 35.54000092, 0.00000000
1, 3.0800, 308, 0.00160784, -0.91225559, -0.42050287, -0.95153475, 0.49442047, -0.39209372, 14.74575996, -61.66067886, 38.20703888, -1.50954759, -0.68224031, -3.71707439, 0.99936700, 0.01335881, 0.00552277, 0.03250689, -0.01352854, 0.93844819, -0.57908291, 87.58400726, 1212.31579590, 35.54000092, 0.00000000
1, 3.0900, 309, 0.00212881, -0.90901494, -0.41862786, -0.88095105, 0.45895839, -0.28758544, 14.74575996, -61.66067886, 38.20703888, -1.51835358, -0.67770100, -3.71399736, 0.99936706, 0.01343418, 0.00548104, 0.03247996, -0.01398370, 0.93545294, -0.58095229, 87.58400726, 1212.31579590, 35.54000092, 0.00000000
1, 3.1000, 310, 0.00375014, -0.90698576, -0.42016479, -0.64606804, 0.18548331, -0.24131869, 15.33078861, -61.26486588, 38.98735428, -1.52482235, -0.67472994, -3.71323991, 0.99936670, 0.01348972, 0.00545339, 0.03247333, -0.01554222, 0.93356025, -0.57941252, 87.58400726, 1212.31579590, 35.54000092, 0.00000000
1, 3.1100, 311, 0.00618883, -0.90554833, -0.42209703, -0.35700765, -0.15646738, -0.17907904, 15.58674240, -61.22089005, 38.56864929, -1.52838743, -0.67375928, -3.71536517, 0.99936575, 0.01352064, 0.00544366, 0.03249192, -0.01795724, 0.93219703, -0.57747853, 87.58400726, 1212.31579590, 35.54000092, 0.00000000
1, 3.1200, 312, 0.00422161, -0.90788013, -0.42299676, -0.12250720, -0.36104479, -0.14894098, 15.55017757, -61.35282516, 38.56864929, -1.52962208, -0.67392242, -3.71925020, 0.99936455, 0.01353164, 0.00544428, 0.03252588, -0.01597935, 0.93456757, -0.57657790, 87.58400726, 1212.31579590, 35.54000092, 0.00000000
1, 3.1300, 313, 0.00221594, -0.90667033, -0.42230231, -0.05020960, -0.34246963, -0.20150660, 14.59950256, -60.16538239, 37.84543228, -1.54370046, -0.67536896, -3.74852133, 0.99935436, 0.01365622, 0.00544941, 0.03278199, -0.01398279, 0.93342966, -0.57727039, 87.58400726, 1212.31579590, 35.54000092, 0.00000000
1, 3.1400, 314, 0.00070584, -0.90724611, -0.42198449, -0.08501150, -0.56688333, -0.13580488, 14.59950256, -60.16538239, 37.84543228, -1.54456317, -0.67651612, -3.75422549, 0.99935263, 0.01366434, 0.00545849, 0.03283191, -0.01250232, 0.93419027, -0.57758284, 87.58400726, 1212.31579590, 35.54000092, 0.00000000
1, 3.1500, 315, 0.00033423, -0.90954822, -0.42132813, -0.04744565, -0.80731386, -0.10581800, 14.74575996, -59.50569916, 38.07381439, -1.54505765, -0.67894548, -3.76198959, 0.99935019, 0.01366972, 0.00547860, 0.03289993, -0.01216725, 0.93650734, -0.57823837, 87.58400726, 1212.31579590, 35.54000092, 0.00000000
1, 3.1600, 316, -0.00292582, -0.90974736, -0.42336515, -0.00785869, -0.78529489, -0.38672912, 15.11140537, -60.78109741, 38.18800735, -1.54514670, -0.67873347, -3.77074075, 0.99934769, 0.01367085, 0.00547569, 0.03297622, -0.00892351, 0.93670678, -0.57620120, 87.58400726, 1212.31579590, 35.54000092, 0.00000000
1, 3.1700, 317, -0.00141545, -0.91288435, -0.42410958, -0.17004545, -0.51011080, -0.50349557, 15.47705078, -61.79261780, 38.66381073, -1.54683948, -0.67630512, -3.77746177, 0.99934572, 0.01368524, 0.00545322, 0.03303464, -0.01040303, 0.93986082, -0.57545668, 87.58400726, 1212.31579590, 35.54000092, 0.00000000
1, 3.1800, 318, -0.00245737, -0.91432446, -0.42265439, -0.26099086, -0.23493716, -0.58532375, 15.25766277, -60.16538239, 38.28316879, -1.55052376, -0.68250352, -3.80754280, 0.99933624, 0.01372059, 0.00550261, 0.03329787, -0.00934795, 0.94135189, -0.57691056, 87.58400726, 1212.31579590, 35.54000092, 0.00000000
1, 3.1900, 319, -0.00323522, -0.91534340, -0.41663957, -0.35854295, 0.36184096, -0.39669552, 15.25766277, -60.16538239, 38.28316879, -1.55411279, -0.67738253, -3.80587888, 0.99933654, 0.01375033, 0.00545711, 0.03328293, -0.00862188, 0.94243121, -0.58292317, 87.58400726, 1212.31579590, 35.54000092, 0.00000000
1, 3.2000, 320, -0.00175568, -0.91614836, -0.41444463, -0.54091388, 0.66889745, -0.37210375, 15.55017757, -62.89209366, 37.88349915, -1.55951524, -0.67119330, -3.80129957, 0.99933749, 0.01379544, 0.00540211, 0.03324253, -0.00999867, 0.94332325, -0.58511692, 87.58400726, 1212.31579590, 35.54000092, 0.00000000
1, 3.2100, 321, 0.00069457, -0.91484606, -0.41748536, -0.58027953, 0.83785146, -0.22780477, 15.58674240, -59.90151215, 38.41639328, -1.56530559, -0.66560304, -3.79457688, 0.99933910, 0.01384401, 0.00535249, 0.03318352, -0.01234716, 0.94212484, -0.58207458, 87.58400726, 1212.31579590, 35.54000092, 0.00000000
1, 3.2200, 322, 0.00179549, -0.91039252, -0.42054904, -0.25716126, 0.66742325, -0.14448500, 15.33078861, -62.54026413, 38.68284225, -1.56786323, -0.66148585, -3.78909397, 0.99934059, 0.01386487, 0.00531651, 0.03313534, -0.01336826, 0.93774116, -0.57901001, 87.58400726, 1212.31579590, 35.54000092, 0.00000000
1, 3.2300, 323, 0.00258539, -0.90764618, -0.42390525, 0.01332633, 0.34191155, -0.04668626, 15.80613136, -60.42926025, 38.60671234, -1.58731711, -0.65729529, -3.80978346, 0.99933255, 0.01403427, 0.00527181, 0.03331617, -0.01409839, 0.93509281, -0.57565176, 87.58400726, 1212.31579590, 35.54000092, 0.00000000
1, 3.2400, 324, 0.00366655, -0.90750813, -0.42392319, 0.01986790, -0.18781851, -0.18089136, 15.80613136, -60.42926025, 38.60671234, -1.58711934, -0.65644413, -3.81225014, 0.99933177, 0.01403241, 0.00526414, 0.03333757, -0.01512778, 0.93520427, -0.57562751, 87.58400726, 1212.31579590, 35.54000092, 0.00000000
1, 3.2500, 325, 0.00309212, -0.91224039, -0.42402494, -0.40505341, -0.89560485, -0.12415826, 15.33078861, -59.85753250, 38.35929489, -1.59118748, -0.65908289, -3.82084489, 0.99932867, 0.01406905, 0.00528491, 0.03341303, -0.01457898, 0.93997508, -0.57552439, 87.58400726, 1212.31579590, 35.54000092, 0.00000000
1, 3.2600, 326, 0.00368782, -0.91564304, -0.42225826, -0.50473249, -1.44189894, -0.34627810, 15.65986919, -61.39680099, 38.18800735, -1.59626603, -0.66200596, -3.83531475, 0.99932367, 0.01411486, 0.00530714, 0.03353980, -0.01521949, 0.94347036, -0.57728797, 87.58400726, 1212.31579590, 35.54000092, 0.00000000
1, 3.2700, 327, 0.00427683, -0.91604024, -0.42163929, -0.34251326, -1.61302018, -0.29763719, 15.18453217, -62.84811401, 38.24510574, -1.59971333, -0.66609210, -3.85115433, 0.99931830, 0.01414685, 0.00533981, 0.03367858, -0.01587401, 0.94393003, -0.57790446, 87.58400726, 1212.31579590, 35.54000092, 0.00000000
1, 3.2800, 328, 0.00383468, -0.91622043, -0.42026085, -0.07446097, -1.45596182, -0.33031201, 15.55017757, -61.04496765, 38.24510574, -1.59842896, -0.66955906, -3.88927889, 0.99930710, 0.01413845, 0.00536572, 0.03401140, -0.01550417, 0.94413346, -0.57928139, 87.58400726, 1212.31579590, 35.54000092, 0.00000000
1, 3.2900, 329, 0.00502239, -0.91290200, -0.41687033, -0.29321760, -1.01110482, -0.35544673, 15.55017757, -61.04496765, 38.24510574, -1.60137475, -0.67058802, -3.89990878, 0.99930352, 0.01416494, 0.00537250, 0.03410437, -0.01672380, 0.94082522, -0.58267123, 87.58400726, 1212.31579590, 35.54000092, 0.00000000
1, 3.3000, 330, 0.00543125, -0.91187435, -0.41590464, -0.49366510, -0.39228719, -0.51760656, 15.58674240, -60.47323990, 38.03575134, -1.60632324, -0.66754168, -3.90557909, 0.99930131, 0.01420746, 0.00534376, 0.03415368, -0.01710382, 0.93986344, -0.58363539, 87.58400726, 1212.31579590, 35.54000092, 0.00000000
1, 3.3100, 331, 0.00233857, -0.91113234, -0.41753307, -0.65593803, -0.13454250, -0.61716110, 16.13521194, -62.27638626, 38.34026337, -1.61287713, -0.66250712, -3.90931058, 0.99929976, 0.01426329, 0.00529744, 0.03418592, -0.01393678, 0.93923110, -0.58200479, 87.58400726, 1212.31579590, 35.54000092, 0.00000000
1, 3.3200, 332, 0.00054971, -0.91181183, -0.42063433, -1.00031793, 0.23985888, -0.59065765, 15.87925720, -61.48476028, 38.34026337, -1.62287641, -0.65613580, -3.90949011, 0.99929881, 0.01434861, 0.00523887, 0.03418717, -0.01204106, 0.94007075, -0.57890022, 87.58400726, 1212.31579590, 35.54000092, 0.00000000
1, 3.3300, 333, -0.00097950, -0.91284138, -0.42450446, -0.96518236, 0.23928063, -0.53804249, 15.69643497, -61.92455292, 38.70186996, -1.64344966, -0.65882349, -3.93454599, 0.99928856, 0.01452996, 0.00525300, 0.03440694, -0.01043836, 0.94131792, -0.57502478, 87.58400726, 1212.31579590, 35.54000092, 0.00000000
1, 3.3400, 334, -0.00216673, -0.91401988, -0.42827964, -0.55279982, -0.15629563, -0.28394619, 15.69643497, -61.92455292, 38.70186996, -1.64897585, -0.65690529, -3.93708515, 0.99928719, 0.01457770, 0.00523429, 0.03442910, -0.00930756, 0.94276536, -0.57124126, 87.58400726, 1212.31579590, 35.54000092, 0.00000000
1, 3.3500, 335, -0.00315775, -0.91152036, -0.42919561, -0.24495684, -0.61846161, -0.20671307, 15.62330818, -60.34130478, 38.09284973, -1.65144777, -0.65763712, -3.94353414, 0.99928480, 0.01459977, 0.00523910, 0.03448554, -0.00831534, 0.94032466, -0.57032359, 87.58400726, 1212.31579590, 35.54000092, 0.00000000
1, 3.3600, 336, -0.00374018, -0.90862137, -0.42795044, -0.31631678, -0.73995346, -0.15631402, 15.40392017, -60.42926025, 38.09284973, -1.65463328, -0.65933853, -3.95085907, 0.99928212, 0.01462839, 0.00525205, 0.03454978, -0.00775396, 0.93747491, -0.57156718, 87.58400726, 1212.31579590, 35.54000092, 0.00000000
1, 3.3700, 337, -0.00555043, -0.90534055, -0.42496213, -0.31588551, -0.65275681, -0.24237366, 15.55017757, -61.48476028, 38.45445633, -1.65779269, -0.65989172, -3.95775914, 0.99927962, 0.01465643, 0.00525504, 0.03461016, -0.00596879, 0.93424857, -0.57455355, 87.58400726, 1212.31579590, 35.54000092, 0.00000000
1, 3.3800, 338, -0.00448518, -0.90230387, -0.42120576, -0.40516618, -0.47964004, -0.37908736, 15.40392017, -61.30884552, 38.70186996, -1.66589522, -0.67342025, -3.98880792, 0.99926841, 0.01473260, 0.00536657, 0.03488297, -0.00708436, 0.93128312, -0.57830727, 87.58400726, 1212.31579590, 35.54000092, 0.00000000
1, 3.3900, 339, -0.00304090, -0.90311253, -0.41485748, -0.19206710, -0.41106004, -0.27282780, 15.40392017, -61.30884552, 38.62574387, -1.66781616, -0.67267972, -3.99366164, 0.99926674, 0.01474936, 0.00535891, 0.03492530, -0.00870072, 0.93220156, -0.58465040, 87.58400726, 1212.31579590, 35.54000092, 0.00000000
1, 3.4000, 340, 0.00045079, -0.90744251, -0.41346583, -0.17545554, -0.23910506, -0.28684175, 15.40392017, -62.71617889, 38.62574387, -1.66958344, -0.67108661, -3.99701452, 0.99926561, 0.01476444, 0.00534404, 0.03495442, -0.01217405, 0.93655986, -0.58604145, 87.58400726, 1212.31579590, 35.54000092, 0.00000000
1, 3.4100, 341, 0.00358717, -0.91090035, -0.41557938, -0.30163410, -0.27554160, -0.21690845, 15.69643497, -60.78109741, 38.70186996, -1.67260623, -0.67028135, -4.00038910, 0.99926424, 0.01479071, 0.00533566, 0.03498388, -0.01529126, 0.94007039, -0.58392656, 87.58400726, 1212.31579590, 35.54000092, 0.00000000
1, 3.4200, 342, 0.00540523, -0.91583967, -0.42368701, -0.26689744, -0.25925365, -0.14635915, 15.18453217, -61.35282516, 38.24510574, -1.67528403, -0.67004704, -4.00332069, 0.99926305, 0.01481413, 0.00533242, 0.03500955, -0.01709794, 0.94506025, -0.57581758, 87.58400726, 1212.31579590, 35.54000092, 0.00000000
1, 3.4300, 343, 0.00716486, -0.91557521, -0.42729658, -0.16163056, -0.19180433, -0.02221499, 15.33078861, -59.72559738, 37.97865677, -1.70093095, -0.61882877, -4.02772236, 0.99925488, 0.01502324, 0.00487475, 0.03521698, -0.01863561, 0.94493496, -0.57220638, 87.58400726, 1212.31579590, 35.54000092, 0.00000000
1, 3.4400, 344, 0.00681217, -0.91429007, -0.43187574, -0.27004990, -0.26297879, 0.08209024, 15.33078861, -60.86905289, 38.54961777, -1.70364797, -0.62068248, -4.02972364, 0.99925387, 0.01504759, 0.00488982, 0.03523479, -0.01763002, 0.94399929, -0.56762433, 87.58400726, 1212.31579590, 35.54000092, 0.00000000
1, 3.4500, 345, 0.00109246, -0.90713221, -0.43490216, -0.34217486, -0.24667534, 0.10023201, 15.33078861, -60.86905289, 38.54961777, -1.70706630, -0.62263149, -4.03149033, 0.99925280, 0.01507807, 0.00490553, 0.03525059, -0.01194900, 0.93689334, -0.56459588, 87.58400726, 1212.31579590, 35.54000092, 0.00000000
1, 3.4600, 346, -0.00328870, -0.90106463, -0.43318352, -0.35929283, -0.22851707, 0.03035292, 16.06208038, -62.10047150, 38.58768082, -1.71067381, -0.62387079, -4.03338623, 0.99925166, 0.01510999, 0.00491498, 0.03526744, -0.00759372, 0.93089718, -0.56631219, 87.58400726, 1212.31579590, 35.54000092, 0.00000000
1, 3.4700, 347, -0.00494733, -0.89592588, -0.42599574, -0.22909412, -0.25667989, -0.28704712, 15.87925720, -62.18843079, 38.35929489, -1.71296406, -0.62235242, -4.03689528, 0.99925041, 0.01512964, 0.00490057, 0.03529794, -0.00592720, 0.92580348, -0.57349873, 87.58400726, 1212.31579590, 35.54000092, 0.00000000
1, 3.4800, 348, -0.00682501, -0.89290750, -0.42187163, -0.15983547, 0.12239004, -0.34960282, 15.33078861, -59.94548798, 38.32123184, -1.73018932, -0.64579916, -4.06365871, 0.99923855, 0.01528823, 0.00509615, 0.03553510, -0.00411557, 0.92288631, -0.57761902, 87.58400726, 1212.31579590, 35.54000092, 0.00000000
1, 3.4900, 349, -0.00428007, -0.89020956, -0.42043993, -0.12212361, 0.35024226, -0.62618083, 15.22109699, -59.76956940, 38.47348785, -1.73140597, -0.63864344, -4.06311750, 0.99923891, 0.01529660, 0.00503345, 0.03552950, -0.00691362, 0.92041498, -0.57904112, 87.58400726, 1212.31579590, 35.54000092, 0.00000000
1, 3.5000, 350, -0.00340526, -0.88936001, -0.41934738, 0.00248720, 0.80092430, -0.84560508, 15.22109699, -59.76956940, 38.47348785, -1.73137188, -0.62759316, -4.05943680, 0.99924064, 0.01529274, 0.00493759, 0.03549597, -0.00762755, 0.91957581, -0.58013511, 87.58400726, 1212.31579590, 35.54000092, 0.00000000
1, 3.5100, 351, -0.00132379, -0.89493674, -0.41358015, 0.43330857, 0.99556011, -1.00103617, 15.95238781, -61.92455292, 38.96832275, -1.72703099, -0.61431348, -4.05470705, 0.99924344, 0.01525059, 0.00482377, 0.03545282, -0.00948394, 0.92510891, -0.58590615, 87.58400726, 1212.31579590, 35.54000092, 0.00000000
1, 3.5200, 352, 0.00800572, -0.90057617, -0.40478042, 0.88168412, 1.01651657, -1.01954591, 16.06208038, -59.68161774, 38.85412979, -1.71820128, -0.60077989, -4.04992199, 0.99924666, 0.01516923, 0.00470912, 0.03540897, -0.01858222, 0.93061852, -0.59471226, 87.58400726, 1212.31579590, 35.54000092, 0.00000000
1, 3.5300, 353, 0.01773231, -0.90628713, -0.39886916, 1.07318747, 1.51406193, -0.92177993, 15.33078861, -61.04496765, 38.37833023, -1.69417381, -0.57307082, -4.06422377, 0.99924684, 0.01495174, 0.00447305, 0.03552917, -0.02800488, 0.93608922, -0.60063386, 87.58400726, 1212.31579590, 35.54000092, 0.00000000
1, 3.5400, 354, 0.03099535, -0.91870141, -0.39970556, 0.63590562, 2.10931301, -0.80245775, 15.36735439, -60.42926025, 38.30220032, -1.68776238, -0.55689245, -4.04857969, 0.99925327, 0.01489025, 0.00433599, 0.03539044, -0.04081722, 0.94819069, -0.59981126, 87.58400726, 1212.31579590, 35.54000092, 0.00000000
1, 3.5500, 355, 0.03523427, -0.93408889, -0.40016955, 0.64911687, 2.51997423, -0.72355121, 15.36735439, -60.42926025, 38.30220032, -1.68119097, -0.53969789, -4.02887726, 0.99926102, 0.01482694, 0.00419063, 0.03521622, -0.04477537, 0.96347463, -0.59935308, 87.58400726, 1212.31579590, 35.54000092, 0.00000000
1, 3.5600, 356, 0.03885596, -0.95721793, -0.39740360, 1.77220547, 3.38790894, -0.79663205, 14.67262936, -60.42926025, 38.83509827, -1.66334999, -0.51818627, -4.00176191, 0.99927253, 0.01466382, 0.00401200, 0.03497641, -0.04804685, 0.98638749, -0.60212862, 87.58400726, 1212.31579590, 35.54000092, 0.00000000
1, 3.5700, 357, 0.03751776, -0.97614413, -0.38327736, 2.87601495, 4.08073616, -0.66239554, 15.51361179, -62.23241043, 38.60671234, -1.63443220, -0.49498653, -3.96793795, 0.99928749, 0.01440347, 0.00382276, 0.03467759, -0.04630626, 1.00486934, -0.61627138, 87.58400726, 1212.31579590, 35.54000092, 0.00000000
1, 3.5800, 358, 0.03443633, -0.98426795, -0.37343103, 3.29800987, 4.73305273, -0.47418961, 15.84269142, -61.52874374, 38.75896835, -1.58664393, -0.46421039, -3.95044017, 0.99930000, 0.01397691, 0.00357098, 0.03451972, -0.04278470, 1.01236200, -0.62613934, 87.58400726, 1212.31579590, 35.54000092, 0.00000000
1, 3.5900, 359, 0.03597890, -0.98708344, -0.37128055, 2.45519352, 4.62237787, -0.40362421, 15.07484055, -60.07742691, 38.37833023, -1.56185901, -0.44112453, -3.91052723, 0.99931580, 0.01375266, 0.00338191, 0.03416817, -0.04382295, 1.01449037, -0.62831300, 87.58400726, 1212.31579590, 35.54000092, 0.00000000
1, 3.6000, 360, 0.04715956, -0.98349983, -0.37162507, 0.99076873, 3.52563214, -0.14094807, 15.07484055, -60.07742691, 38.37833023, -1.55176377, -0.42503712, -3.87925935, 0.99932683, 0.01365895, 0.00324835, 0.03389331, -0.05467637, 1.01062834, -0.62797868, 87.58400726, 1212.31579590, 35.54000092, 0.00000000
1, 3.6100, 361, 0.04997032, -0.97761548, -0.37096757, 0.07968018, 3.08906460, -0.11218195, 15.11140537, -59.94548798, 38.49252319, -1.55078661, -0.41104475, -3.85170984, 0.99933565, 0.01364555, 0.00312990, 0.03365139, -0.05724111, 1.00467324, -0.62863994, 87.58400726, 1212.31579590, 35.54000092, 0.00000000
1, 3.6200, 362, 0.04789861, -0.97153491, -0.36790052, -0.63754904, 3.96768498, -0.67159957, 15.65986919, -61.26486588, 38.81606293, -1.55693996, -0.38827971, -3.81844282, 0.99934536, 0.01369170, 0.00293354, 0.03335877, -0.05484673, 0.99865508, -0.63170755, 87.58400726, 1212.31579590, 35.54000092, 0.00000000
1, 3.6300, 363, 0.04864097, -0.96106052, -0.35452536, -0.79063994, 5.96631002, -1.24435341, 15.65986919, -61.83659363, 38.91122437, -1.54300201, -0.33901888, -3.79163527, 0.99935639, 0.01355526, 0.00251116, 0.03311888, -0.05498469, 0.98822212, -0.64508551, 87.58400726, 1212.31579590, 35.54000092, 0.00000000
1, 3.6400, 364, 0.05088746, -0.94643378, -0.34011942, -1.06882536, 8.29386425, -2.05590510, 15.03827477, -60.42926025, 38.58768082, -1.55314672, -0.28552404, -3.72486162, 0.99937576, 0.01362711, 0.00204964, 0.03253048, -0.05624180, 0.97346550, -0.65950078, 87.58400726, 1212.31579590, 35.54000092, 0.00000000
1, 3.6500, 365, 0.05840278, -0.92873174, -0.33231062, -1.89593434, 9.34230900, -2.55868125, 15.03827477, -60.42926025, 38.58768082, -1.57142377, -0.22304337, -3.65059137, 0.99939591, 0.01376783, 0.00150847, 0.03187564, -0.06271141, 0.95601451, -0.66730785, 87.58400726, 1212.31579590, 35.54000092, 0.00000000
1, 3.6600, 366, 0.06964231, -0.91389251, -0.33497369, -3.99148154, 9.13802719, -2.60929918, 15.03827477, -59.94548798, 38.81606293, -1.61058784, -0.16091754, -3.57813787, 0.99941230, 0.01409154, 0.00096466, 0.03123667, -0.07285363, 0.94171751, -0.66463387, 87.58400726, 1212.31579590, 35.54000092, 0.00000000
1, 3.6700, 367, 0.07632799, -0.90301508, -0.34796080, -5.90464830, 8.14125347, -2.37830472, 15.91582298, -60.86905289, 39.23477173, -1.66890442, -0.10501883, -3.51354527, 0.99942321, 0.01458466, 0.00046947, 0.03066673, -0.07851340, 0.93173414, -0.65162426, 87.58400726, 1212.31579590, 35.54000092, 0.00000000
1, 3.6800, 368, 0.07377138, -0.89801896, -0.36592168, -6.55672646, 6.05168152, -1.87531245, 15.73299980, -61.79261780, 39.25379944, -1.72993934, -0.04969320, -3.48681736, 0.99942297, 0.01510219, -0.00002587, 0.03042659, -0.07506338, 0.92783624, -0.63363278, 87.58400726, 1212.31579590, 35.54000092, 0.00000000
1, 3.6900, 369, 0.06594530, -0.89160639, -0.38189927, -5.37061930, 3.05106711, -1.44983339, 15.76956558, -63.68372726, 38.77800369, -1.78335249, -0.02362149, -3.46459484, 0.99942183, 0.01556117, -0.00026442, 0.03022922, -0.06650300, 0.92239940, -0.61762631, 87.58400726, 1212.31579590, 35.54000092, 0.00000000
1, 3.7000, 370, 0.06207783, -0.88691366, -0.38344628, -1.88587737, -0.70771241, -0.78365260, 15.76956558, -63.68372726, 38.77800369, -1.80234754, -0.01951623, -3.47407341, 0.99941683, 0.01572573, -0.00030653, 0.03031129, -0.06241417, 0.91827518, -0.61606175, 87.58400726, 1212.31579590, 35.54000092, 0.00000000
1, 3.7100, 371, 0.06479789, -0.88368952, -0.37447059, 0.83162594, -3.86492968, 0.51276368, 15.62330818, -60.42926025, 38.91122437, -1.79446507, -0.04054965, -3.50701189, 0.99940902, 0.01566251, -0.00012551, 0.03060145, -0.06533659, 0.91508424, -0.62503636, 87.58400726, 1212.31579590, 35.54000092, 0.00000000
1, 3.7200, 372, 0.06815928, -0.88756979, -0.35495451, 2.09952760, -5.10942554, 1.67804503, 15.36735439, -61.83659363, 39.25379944, -1.77396941, -0.07740779, -3.54646087, 0.99940091, 0.01549367, 0.00019609, 0.03095050, -0.06925270, 0.91866428, -0.64456129, 87.58400726, 1212.31579590, 35.54000092, 0.00000000
1, 3.7300, 373, 0.06266946, -0.90785396, -0.33777571, 1.72755146, -3.83141232, 3.11231637, 16.17177200, -62.01251602, 39.00638580, -1.72930634, -0.10284550, -3.59090877, 0.99939448, 0.01511117, 0.00042415, 0.03134141, -0.06442712, 0.93849635, -0.66175306, 87.58400726, 1212.31579590, 35.54000092, 0.00000000
1, 3.7400, 374, 0.05718697, -0.93852550, -0.33494785, 1.03254056, -0.56244421, 3.30621696, 15.40392017, -60.73711777, 38.66381073, -1.71890104, -0.13519032, -3.58216643, 0.99939781, 0.01502921, 0.00071023, 0.03126935, -0.05935506, 0.96857929, -0.66459799, 87.58400726, 1212.31579590, 35.54000092, 0.00000000
1, 3.7500, 375, 0.05141219, -0.96414745, -0.34350213, 0.59305513, 2.83515382, 3.09773922, 15.29422855, -59.72559738, 38.91122437, -1.71255660, -0.15128508, -3.54346228, 0.99940890, 0.01497797, 0.00085739, 0.03093385, -0.05396245, 0.99407613, -0.65604663, 87.58400726, 1212.31579590, 35.54000092, 0.00000000
1, 3.7600, 376, 0.04554993, -0.98073357, -0.35488477, 0.45397815, 4.96798992, 2.72112560, 15.29422855, -59.72559738, 38.91122437, -1.70739889, -0.15495686, -3.48700285, 0.99942458, 0.01493354, 0.00089816, 0.03044187, -0.04824170, 1.01055777, -0.64466679, 87.58400726, 1212.31579590, 35.54000092, 0.00000000
1, 3.7700, 377, 0.04344967, -0.98860645, -0.36625618, -0.17120160, 4.96593142, 2.54721260, 15.03827477, -61.30884552, 38.73993683, -1.70851898, -0.15706199, -3.43121362, 0.99943912, 0.01494342, 0.00092350, 0.02995557, -0.04617880, 1.01839328, -0.63329637, 87.58400726, 1212.31579590, 35.54000092, 0.00000000
1, 3.7800, 378, 0.03471875, -0.98371309, -0.36763951, -1.65907884, 3.50214577, 2.15184641, 15.18453217, -59.50569916, 38.41639328, -1.70281589, -0.15552145, -3.41369653, 0.99944448, 0.01489313, 0.00091383, 0.02980255, -0.03747874, 1.01358652, -0.63191032, 87.58400726, 1212.31579590, 35.54000092, 0.00000000
1, 3.7900, 379, 0.02583240, -0.97440994, -0.36256230, -3.24443293, 2.35782814, 2.11506104, 15.47705078, -61.96853638, 38.51155472, -1.73494983, -0.16471092, -3.38295865, 0.99944806, 0.01517552, 0.00098969, 0.02953592, -0.02863806, 1.00446057, -0.63698214, 87.58400726, 1212.31579590, 35.54000092, 0.00000000
1, 3.8000, 380, 0.01572038, -0.95585036, -0.35789365, -3.57219172, 2.41874933, 2.43375444, 15.22109699, -60.25334549, 38.53058243, -1.77033365, -0.17650871, -3.35026860, 0.99945146, 0.01548686, 0.00108789, 0.02925269, -0.01871970, 0.98653072, -0.64163113, 87.58400726, 1212.31579590, 35.54000092, 0.00000000
1, 3.8100, 381, 0.01261371, -0.93395352, -0.35343227, -2.26580739, 3.63583136, 3.14089847, 15.22109699, -60.25334549, 38.53058243, -1.79254103, -0.18954360, -3.30372667, 0.99946004, 0.01568338, 0.00120228, 0.02884875, -0.01583597, 0.96511036, -0.64607716, 87.58400726, 1212.31579590, 35.54000092, 0.00000000
1, 3.8200, 382, 0.00908598, -0.90628678, -0.35382628, -0.92721456, 6.63091946, 4.27204800, 15.47705078, -62.27638626, 38.77800369, -1.80104232, -0.20011939, -3.22544432, 0.99947816, 0.01575930, 0.00130315, 0.02816750, -0.01251837, 0.93767822, -0.64567500, 87.58400726, 1212.31579590, 35.54000092, 0.00000000
1, 3.8300, 383, 0.00449847, -0.87743098, -0.35917705, -0.02717518, 10.54916763, 5.40636873, 16.17177200, -60.91303253, 38.93025589, -1.79927051, -0.20574358, -3.12910485, 0.99950165, 0.01574408, 0.00136587, 0.02732796, -0.00804922, 0.90885234, -0.64032286, 87.58400726, 1212.31579590, 35.54000092, 0.00000000
1, 3.8400, 384, 0.00011077, -0.85858703, -0.36945885, 0.24172924, 14.28494740, 6.90792894, 16.31803322, -60.42926025, 39.10154343, -1.79530883, -0.20774937, -2.97048903, 0.99953896, 0.01570807, 0.00140606, 0.02594467, -0.00373544, 0.88995409, -0.63004249, 87.58400726, 1212.31579590, 35.54000092, 0.00000000
1, 3.8500, 385, -0.00356432, -0.84876299, -0.38130516, 0.98600501, 17.82714653, 7.87661552, 15.58674240, -62.80414200, 39.53927994, -1.78352869, -0.20354304, -2.77578568, 0.99958330, 0.01560202, 0.00139855, 0.02424559, -0.00001346, 0.87996781, -0.61820149, 87.58400726, 1212.31579590, 35.54000092, 0.00000000
