SensorId, TimeStamp (s), FrameNumber, AccX (g), AccY (g), AccZ (g), GyroX (deg/s), GyroY (deg/s), GyroZ (deg/s), MagX (uT), MagY (uT), MagZ (uT), EulerX (deg), EulerY (deg), EulerZ (deg), QuatW, QuatX, QuatY, QuatZ, LinAccX (g), LinAccY (g), LinAccZ (g), Pressure (kPa), Altitude (m), Temperature (degC), HeaveMotion (m)
1, 0.0000, 0, 0.02025568, -0.93914187, -0.33990940, -0.31613222, -0.40660769, 0.02153335, 13.35630894, -61.83659363, 43.40278244, 0.13142225, -0.01624579, -2.85522604, 0.99968898, -0.00114299, 0.00017030, 0.02491378, -0.02053326, 0.93683255, -0.66008788, 87.59600067, 1211.19250488, 39.50999832, 0.00000000
1, 0.0100, 1, 0.01817213, -0.93670774, -0.33960703, -0.27878150, -0.30054414, -0.15213418, 13.79508114, -61.70465851, 43.17439651, 0.13993806, -0.01554803, -2.90870738, 0.99967718, -0.00121735, 0.00016663, 0.02538034, -0.01845514, 0.93439555, -0.66039026, 87.59600067, 1211.19250488, 39.50999832, 0.00000000
1, 0.0200, 2, 0.01564212, -0.94069570, -0.34040168, -0.27675530, -0.28081241, -0.30993035, 14.85545158, -63.72769928, 43.51697159, 0.13711113, -0.01361400, -2.91237712, 0.99967641, -0.00119311, 0.00014917, 0.02541238, -0.01589166, 0.93828094, -0.65959537, 87.59600067, 1211.19250488, 39.50999832, 0.00000000
1, 0.0300, 3, 0.01631986, -0.94487542, -0.33956274, -0.24255726, -0.17847405, -0.25514853, 14.85545158, -63.72769928, 43.51697159, 0.13464555, -0.01184187, -2.91488838, 0.99967587, -0.00117199, 0.00013319, 0.02543431, -0.01653899, 0.94250762, -0.66043442, 87.59600067, 1211.19250488, 39.50999832, 0.00000000
1, 0.0400, 4, 0.01663986, -0.94771188, -0.33917961, -0.31570604, -0.07669327, -0.21762827, 14.85545158, -62.45230865, 43.63116455, 0.13146494, -0.01006722, -2.91630769, 0.99967557, -0.00114464, 0.00011702, 0.02544671, -0.01682538, 0.94540048, -0.66081774, 87.59600067, 1211.19250488, 39.50999832, 0.00000000
1, 0.0500, 5, 0.01396169, -0.95020974, -0.33987290, -0.22868335, 0.02492095, -0.09271003, 14.48980618, -63.37586975, 43.68825912, 0.12917534, -0.00910684, -2.91635728, 0.99967563, -0.00112488, 0.00010813, 0.02544716, -0.01412645, 0.94793755, -0.66012448, 87.59600067, 1211.19250488, 39.50999832, 0.00000000
1, 0.0600, 6, 0.01313614, -0.94910002, -0.33947396, 0.01998219, 0.18011928, -0.01989480, 13.79508114, -62.40832901, 43.66922760, 0.16798522, -0.03262115, -2.96453047, 0.99966431, -0.00145809, 0.00032250, 0.02586707, -0.01339299, 0.94667512, -0.66052300, 87.59600067, 1211.19250488, 39.50999832, 0.00000000
1, 0.0700, 7, 0.01042562, -0.94524646, -0.34086052, 0.11014139, 0.23342724, -0.08936322, 14.12416077, -62.89209366, 43.40278244, 0.16912335, -0.03097906, -2.96267009, 0.99966472, -0.00146840, 0.00030841, 0.02585086, -0.01097510, 0.94230139, -0.65913498, 87.59600067, 1211.19250488, 39.50999832, 0.00000000
1, 0.0800, 8, 0.01131073, -0.94078982, -0.34038815, 0.19510402, 0.24077186, -0.03838272, 13.64882374, -62.89209366, 43.65019608, 0.17110439, -0.02978637, -2.96057820, 0.99966514, -0.00148595, 0.00029842, 0.02583262, -0.01183921, 0.93781161, -0.65960729, 87.59600067, 1211.19250488, 39.50999832, 0.00000000
1, 0.0900, 9, 0.01346160, -0.93871492, -0.34241128, 0.26456136, 0.22131634, 0.13677885, 13.64882374, -61.88057327, 43.65019608, 0.17379862, -0.03029825, -2.95807958, 0.99966568, -0.00150935, 0.00030346, 0.02581081, -0.01398968, 0.93570000, -0.65758401, 87.59600067, 1211.19250488, 39.50999832, 0.00000000
1, 0.1000, 10, 0.01513910, -0.93870926, -0.34316212, 0.40993777, 0.17270282, 0.02984211, 13.79508114, -62.05649185, 43.36471558, 0.17793314, -0.02998192, -2.95642710, 0.99966598, -0.00154549, 0.00030161, 0.02579638, -0.01566461, 0.93563157, -0.65683305, 87.59600067, 1211.19250488, 39.50999832, 0.00000000
1, 0.1100, 11, 0.01618747, -0.94241399, -0.34311569, 0.55014652, 0.39538160, 0.12198619, 13.79508114, -62.23241043, 43.40278244, 0.18647321, -0.02764970, -3.00236702, 0.99965554, -0.00162041, 0.00028384, 0.02619717, -0.01670338, 0.93923247, -0.65687913, 87.59600067, 1211.19250488, 39.50999832, 0.00000000
1, 0.1200, 12, 0.01633368, -0.94815463, -0.34238601, 0.42174289, 0.73773879, 0.11199839, 14.52637196, -63.72769928, 43.13633347, 0.19079722, -0.02614871, -2.99513054, 0.99965709, -0.00165849, 0.00027163, 0.02613404, -0.01679532, 0.94485790, -0.65760839, 87.59600067, 1211.19250488, 39.50999832, 0.00000000
1, 0.1300, 13, 0.01472900, -0.95216590, -0.34277079, 0.18606736, 0.80222857, 0.25470182, 13.72195435, -64.07953644, 43.66922760, 0.19280161, -0.02576463, -2.98675323, 0.99965894, -0.00167608, 0.00026861, 0.02606096, -0.01518115, 0.94880766, -0.65722346, 87.59600067, 1211.19250488, 39.50999832, 0.00000000
1, 0.1400, 14, 0.01204945, -0.95198882, -0.34098342, 0.05820252, 1.05853546, 0.26048160, 13.72195435, -64.07953644, 43.66922760, 0.19357078, -0.02455327, -2.97593546, 0.99966139, -0.00168309, 0.00025806, 0.02596661, -0.01248580, 0.94861567, -0.65901089, 87.59600067, 1211.19250488, 39.50999832, 0.00000000
1, 0.1500, 15, 0.01068121, -0.95274353, -0.33881924, -0.21121857, 0.91719699, 0.38138270, 13.79508114, -62.49628448, 43.49793625, 0.19162889, -0.02496421, -2.96597433, 0.99966371, -0.00166608, 0.00026106, 0.02587971, -0.01111325, 0.94937831, -0.66117501, 87.59600067, 1211.19250488, 39.50999832, 0.00000000
1, 0.1600, 16, 0.01190860, -0.95148927, -0.33990449, -0.38675165, 0.60818636, 0.30510998, 13.68538952, -62.49628448, 43.36471558, 0.20251697, -0.03373004, -3.00851846, 0.99965382, -0.00175896, 0.00034064, 0.02625069, -0.01238322, 0.94812024, -0.66008967, 87.59600067, 1211.19250488, 39.50999832, 0.00000000
1, 0.1700, 17, 0.01440654, -0.94671929, -0.34042761, -0.54515058, 0.33304906, 0.26465362, 13.64882374, -62.27638626, 43.91664886, 0.19712985, -0.03506451, -3.00438452, 0.99965489, -0.00171167, 0.00035099, 0.02621463, -0.01500858, 0.94324523, -0.65956622, 87.59600067, 1211.19250488, 39.50999832, 0.00000000
1, 0.1800, 18, 0.01587489, -0.94383687, -0.34011400, -0.56311393, 0.32342702, 0.21273297, 14.05103493, -64.87116241, 43.78342438, 0.19156533, -0.03594172, -3.00051785, 0.99965578, -0.00166294, 0.00035731, 0.02618089, -0.01650321, 0.94045538, -0.65988010, 87.59600067, 1211.19250488, 39.50999832, 0.00000000
1, 0.1900, 19, 0.01631378, -0.94083321, -0.34270298, -0.81164801, 0.27503970, 0.04287305, 14.05103493, -64.87116241, 43.78342438, 0.18349466, -0.03539244, -2.99765038, 0.99965656, -0.00159267, 0.00035064, 0.02615592, -0.01693629, 0.93757391, -0.65729153, 87.59600067, 1211.19250488, 39.50999832, 0.00000000
1, 0.2000, 20, 0.01766922, -0.94145709, -0.34444645, -0.98744476, 0.15642892, -0.13486578, 14.05103493, -62.80414200, 43.65019608, 0.17364362, -0.03358678, -2.99647665, 0.99965703, -0.00150714, 0.00033262, 0.02614573, -0.01827266, 0.93836123, -0.65554857, 87.59600067, 1211.19250488, 39.50999832, 0.00000000
1, 0.2100, 21, 0.01717738, -0.94161516, -0.34454525, -1.14792895, 0.19090104, -0.22154157, 14.16072655, -62.62821960, 43.63116455, 0.16261350, -0.03124207, -3.04464602, 0.99964601, -0.00141133, 0.00031024, 0.02656600, -0.01773248, 0.93870175, -0.65545034, 87.59600067, 1211.19250488, 39.50999832, 0.00000000
1, 0.2200, 22, 0.01836973, -0.94445908, -0.34482953, -1.23512423, 0.05440820, -0.31203586, 13.50256634, -62.27638626, 43.44084167, 0.15024905, -0.02812474, -3.04499292, 0.99964619, -0.00130419, 0.00028018, 0.02656910, -0.01888305, 0.94175518, -0.65516663, 87.59600067, 1211.19250488, 39.50999832, 0.00000000
1, 0.2300, 23, 0.01725303, -0.94495636, -0.34724525, -1.18250942, 0.15746032, -0.29245201, 13.68538952, -61.35282516, 43.66922760, 0.13843933, -0.02483306, -3.04432654, 0.99964643, -0.00120193, 0.00024872, 0.02656335, -0.01770704, 0.94246322, -0.65275156, 87.59600067, 1211.19250488, 39.50999832, 0.00000000
1, 0.2400, 24, 0.01491227, -0.94667023, -0.34903690, -1.16634548, 0.19018726, -0.18634360, 13.68538952, -61.35282516, 43.66922760, 0.12679237, -0.02242927, -3.04298115, 0.99964690, -0.00110088, 0.00022504, 0.02655166, -0.01531750, 0.94438100, -0.65096045, 87.59600067, 1211.19250488, 39.50999832, 0.00000000
1, 0.2500, 25, 0.01302391, -0.94496852, -0.34849149, -1.18370569, 0.20805898, -0.23864965, 14.23385715, -64.07953644, 43.91664886, 0.11497570, -0.01947149, -3.04165387, 0.99964726, -0.00099849, 0.00019649, 0.02654013, -0.01338209, 0.94287777, -0.65150630, 87.59600067, 1211.19250488, 39.50999832, 0.00000000
1, 0.2600, 26, 0.01174688, -0.94459504, -0.34822583, -1.34257364, -0.01562010, -0.27802277, 14.16072655, -62.36434555, 44.39244461, 0.09520491, -0.02349272, -3.09142637, 0.99963582, -0.00082499, 0.00022735, 0.02697432, -0.01208742, 0.94276166, -0.65177244, 87.59600067, 1211.19250488, 39.50999832, 0.00000000
1, 0.2700, 27, 0.01180100, -0.94196749, -0.34854487, -1.57382512, -0.27531374, -0.24761829, 13.72195435, -61.00099564, 43.47890854, 0.07940335, -0.02212654, -3.09458828, 0.99963522, -0.00068746, 0.00021173, 0.02700195, -0.01219951, 0.94047552, -0.65145391, 87.59600067, 1211.19250488, 39.50999832, 0.00000000
1, 0.2800, 28, 0.01386256, -0.93994528, -0.34724635, -1.51692677, -0.42726076, -0.37403503, 13.68538952, -61.61669922, 43.74535370, 0.06413936, -0.02010208, -3.09962320, 0.99963409, -0.00055477, 0.00019050, 0.02704591, -0.01422355, 0.93873286, -0.65275288, 87.59600067, 1211.19250488, 39.50999832, 0.00000000
1, 0.2900, 29, 0.01518479, -0.94022375, -0.34572622, -1.29930139, -0.61339343, -0.43134904, 13.68538952, -61.61669922, 43.74535370, 0.05102867, -0.01819429, -3.10664701, 0.99963254, -0.00044084, 0.00017079, 0.02710721, -0.01550875, 0.93925130, -0.65427321, 87.59600067, 1211.19250488, 39.50999832, 0.00000000
1, 0.3000, 30, 0.01513855, -0.94157618, -0.34505954, -0.99404448, -0.81855428, -0.33112648, 13.21005249, -63.46382904, 43.84051895, 0.04093132, -0.01793379, -3.11529517, 0.99963045, -0.00035281, 0.00016615, 0.02718266, -0.01545396, 0.94079918, -0.65494013, 87.59600067, 1211.19250488, 39.50999832, 0.00000000
1, 0.3100, 31, 0.01612547, -0.94943845, -0.34827426, -0.72465611, -0.78127873, -0.38390201, 14.05103493, -63.02403641, 43.84051895, 0.03524468, -0.01486165, -3.17272711, 0.99961668, -0.00030386, 0.00013816, 0.02768368, -0.01642189, 0.94880217, -0.65172547, 87.59600067, 1211.19250488, 39.50999832, 0.00000000
1, 0.3200, 32, 0.01618504, -0.95385063, -0.35073596, 0.09912379, -0.84542423, -0.26472309, 13.46600056, -62.27638626, 43.78342438, 0.03608543, -0.01532236, -3.18159246, 0.99961460, -0.00031107, 0.00014240, 0.02776101, -0.01645212, 0.95322949, -0.64926380, 87.59600067, 1211.19250488, 39.50999832, 0.00000000
1, 0.3300, 33, 0.01595806, -0.95600277, -0.34189257, 0.45902130, -0.92780131, -0.30271286, 13.79508114, -62.40832901, 43.59310150, 0.04049540, -0.01571465, -3.19142556, 0.99961221, -0.00034943, 0.00014692, 0.02784678, -0.01622989, 0.95532334, -0.65810716, 87.59600067, 1211.19250488, 39.50999832, 0.00000000
1, 0.3400, 34, 0.01333230, -0.95175499, -0.34306002, 0.13256183, -0.84800833, -0.08909667, 13.79508114, -62.40832901, 43.59310150, 0.04168482, -0.01783051, -3.19970775, 0.99961019, -0.00035928, 0.00016570, 0.02791902, -0.01363060, 0.95102656, -0.65693974, 87.59600067, 1211.19250488, 39.50999832, 0.00000000
1, 0.3500, 35, 0.00870661, -0.94641215, -0.34399527, -0.00967819, -0.84770113, -0.17654657, 13.68538952, -62.01251602, 43.32665253, 0.04143781, -0.01912384, -3.20826602, 0.99960804, -0.00035680, 0.00017694, 0.02799368, -0.00903085, 0.94568497, -0.65600443, 87.59600067, 1211.19250488, 39.50999832, 0.00000000
1, 0.3600, 36, 0.00473060, -0.94077265, -0.34181371, -0.06125281, -0.98419917, -0.24957168, 13.97790337, -61.48476028, 43.30761719, 0.05527605, -0.05266131, -3.26716161, 0.99959338, -0.00046908, 0.00047312, 0.02850726, -0.00521841, 0.93999702, -0.65818584, 87.59600067, 1211.19250488, 39.50999832, 0.00000000
1, 0.3700, 37, 0.00430772, -0.93783092, -0.34121263, -0.06158674, -0.75920725, -0.36788860, 13.68538952, -61.57272339, 43.70729446, 0.05451740, -0.05185689, -3.27554059, 0.99959135, -0.00046263, 0.00046595, 0.02858036, -0.00522203, 0.93687177, -0.65878648, 87.59600067, 1211.19250488, 39.50999832, 0.00000000
1, 0.3800, 38, 0.00676190, -0.93884856, -0.34405461, -0.09932484, -0.55365533, -0.36345166, 14.05103493, -63.06801224, 43.82148361, 0.05341938, -0.05037226, -3.28198004, 0.99958974, -0.00045339, 0.00045275, 0.02863654, -0.00765238, 0.93791652, -0.65594459, 87.59600067, 1211.19250488, 39.50999832, 0.00000000
1, 0.3900, 39, 0.01079167, -0.94075787, -0.34491655, -0.10259015, -0.14141566, -0.38993147, 14.41668034, -62.76015854, 43.85954666, 0.05234778, -0.04720680, -3.28464913, 0.99958909, -0.00044483, 0.00042488, 0.02865985, -0.01163623, 0.93984550, -0.65508270, 87.59600067, 1211.19250488, 39.50999832, 0.00000000
1, 0.4000, 40, 0.01236647, -0.94511807, -0.34733054, 0.08988817, 0.11455796, -0.20935579, 14.41668034, -62.76015854, 43.85954666, 0.05324907, -0.04484979, -3.28432107, 0.99958915, -0.00045328, 0.00040454, 0.02865699, -0.01316834, 0.94419461, -0.65266871, 87.59600067, 1211.19250488, 39.50999832, 0.00000000
1, 0.4100, 41, 0.01429402, -0.94667822, -0.34910524, 0.06301145, 0.45059550, 0.21967059, 13.61225796, -62.76015854, 43.55503845, 0.05153709, -0.04761573, -3.32837749, 0.99957812, -0.00043749, 0.00042841, 0.02904129, -0.01508996, 0.94575202, -0.65089405, 87.59600067, 1211.19250488, 39.50999832, 0.00000000
1, 0.4200, 42, 0.01331406, -0.94553882, -0.34880009, -0.01214764, 0.58467603, 0.38092422, 13.53913212, -60.91303253, 43.61213303, 0.05153234, -0.04915378, -3.32157946, 0.99957985, -0.00043708, 0.00044180, 0.02898198, -0.01416227, 0.94463664, -0.65119910, 87.59600067, 1211.19250488, 39.50999832, 0.00000000
1, 0.4300, 43, 0.01086684, -0.94158423, -0.34858307, -0.19319837, 0.71991831, 0.41947818, 14.38011456, -65.35493469, 43.47890854, 0.04972784, -0.05058178, -3.31333876, 0.99958187, -0.00042101, 0.00045377, 0.02891010, -0.01173513, 0.94070405, -0.65141618, 87.59600067, 1211.19250488, 39.50999832, 0.00000000
1, 0.4400, 44, 0.01192868, -0.93993986, -0.34548289, -0.44406798, 0.75282717, 0.38578099, 14.30698395, -63.63974380, 43.63116455, 0.04542634, -0.05158223, -3.30485702, 0.99958396, -0.00038327, 0.00046138, 0.02883613, -0.01282390, 0.93911135, -0.65451640, 87.59600067, 1211.19250488, 39.50999832, 0.00000000
1, 0.4500, 45, 0.01268785, -0.94376302, -0.34396356, -0.53448582, 0.64720130, 0.50688517, 14.30698395, -63.63974380, 43.63116455, 0.04020740, -0.05407757, -3.29693627, 0.99958605, -0.00033715, 0.00048181, 0.02876705, -0.01361102, 0.94302696, -0.65603572, 87.59600067, 1211.19250488, 39.50999832, 0.00000000
1, 0.4600, 46, 0.01342503, -0.94999141, -0.34267712, -0.66139174, 0.60990506, 0.62953758, 14.05103493, -62.05649185, 43.30761719, 0.04379837, -0.05754699, -3.33886337, 0.99957538, -0.00036742, 0.00051311, 0.02913275, -0.01440900, 0.94931448, -0.65732217, 87.59600067, 1211.19250488, 39.50999832, 0.00000000
1, 0.4700, 47, 0.01811673, -0.95057648, -0.34376851, -0.87162912, 0.38866952, 0.41458994, 13.64882374, -62.84811401, 43.11729813, 0.03516530, -0.06007507, -3.33362198, 0.99957681, -0.00029150, 0.00053296, 0.02908707, -0.01914579, 0.94990659, -0.65623075, 87.59600067, 1211.19250488, 39.50999832, 0.00000000
1, 0.4800, 48, 0.02318400, -0.94865900, -0.34271482, -0.94047266, 0.04476474, 0.42514876, 13.35630894, -61.96853638, 42.92698288, 0.02578614, -0.06390446, -3.33155489, 0.99957728, -0.00020872, 0.00056398, 0.02906907, -0.02427559, 0.94814086, -0.65728444, 87.59600067, 1211.19250488, 39.50999832, 0.00000000
1, 0.4900, 49, 0.02510205, -0.94756919, -0.34828591, -0.92016995, 0.13439447, 0.19845295, 13.53913212, -61.83659363, 43.17439651, 0.01660816, -0.06529707, -3.32943845, 0.99957782, -0.00012832, 0.00057379, 0.02905065, -0.02623516, 0.94722235, -0.65171337, 87.59600067, 1211.19250488, 39.50999832, 0.00000000
1, 0.5000, 50, 0.02147499, -0.94443393, -0.35337985, -0.01979745, 0.12857422, -0.06809903, 13.53913212, -61.83659363, 43.17439651, 0.01642893, -0.06420971, -3.32847095, 0.99957812, -0.00012704, 0.00056426, 0.02904221, -0.02260200, 0.94416392, -0.64661950, 87.59600067, 1211.19250488, 39.50999832, 0.00000000
1, 0.5100, 51, 0.02123769, -0.94710767, -0.34235573, 0.79283464, -0.46515539, -0.10064633, 14.38011456, -62.45230865, 43.42181396, 0.04405692, -0.05588330, -3.38422489, 0.99956375, -0.00036990, 0.00049881, 0.02952844, -0.02232074, 0.94665092, -0.65764356, 87.59600067, 1211.19250488, 39.50999832, 0.00000000
1, 0.5200, 52, 0.02083240, -0.95215082, -0.33993483, 0.39915895, -0.69266927, -0.01633336, 13.46600056, -63.68372726, 43.53600693, 0.04793837, -0.05813807, -3.39085245, 0.99956208, -0.00040315, 0.00051951, 0.02958623, -0.02182761, 0.95133364, -0.66006440, 87.59600067, 1211.19250488, 39.50999832, 0.00000000
1, 0.5300, 53, 0.01737786, -0.95509994, -0.33583999, -0.08500459, -0.99121708, 0.17223288, 14.05103493, -62.93607712, 43.23149109, 0.04694987, -0.06319685, -3.39952517, 0.99955976, -0.00039318, 0.00056341, 0.02966186, -0.01844108, 0.95426917, -0.66415906, 87.59600067, 1211.19250488, 39.50999832, 0.00000000
1, 0.5400, 54, 0.01549927, -0.95168501, -0.33962050, -0.10397118, -1.20062959, 0.37882790, 13.72195435, -61.48476028, 43.47890854, 0.04574791, -0.07093145, -3.40943980, 0.99955720, -0.00038063, 0.00063060, 0.02974832, -0.01668286, 0.95088053, -0.66037846, 87.59600067, 1211.19250488, 39.50999832, 0.00000000
1, 0.5500, 55, 0.01392160, -0.94525874, -0.34069934, -0.08263941, -1.43919492, 0.28585559, 13.72195435, -61.48476028, 43.47890854, 0.04471856, -0.07861965, -3.42192316, 0.99955392, -0.00036958, 0.00069743, 0.02985719, -0.01524681, 0.94447082, -0.65929949, 87.59600067, 1211.19250488, 39.50999832, 0.00000000
1, 0.5600, 56, 0.01222752, -0.94165009, -0.34106120, -0.34868672, -1.38583541, 0.04169521, 13.53913212, -61.92455292, 43.30761719, 0.04739168, -0.08269392, -3.48434234, 0.99953747, -0.00039144, 0.00073388, 0.03040162, -0.01365770, 0.94088256, -0.65893745, 87.59600067, 1211.19250488, 39.50999832, 0.00000000
1, 0.5700, 57, 0.01604038, -0.93774217, -0.34176075, -0.07408166, -1.46375775, -0.31234947, 13.90477753, -63.19995117, 43.76438904, 0.04641308, -0.08485654, -3.49913621, 0.99953353, -0.00038223, 0.00075253, 0.03053066, -0.01751547, 0.93692583, -0.65823781, 87.59600067, 1211.19250488, 39.50999832, 0.00000000
1, 0.5800, 58, 0.01765886, -0.93487102, -0.34452242, -0.05185505, -1.42386699, -0.64556664, 14.23385715, -64.12351990, 43.40278244, 0.04562518, -0.08375613, -3.51472211, 0.99952936, -0.00037555, 0.00074278, 0.03066662, -0.01912848, 0.93407071, -0.65547615, 87.59600067, 1211.19250488, 39.50999832, 0.00000000
1, 0.5900, 59, 0.01787176, -0.93409014, -0.34552985, 0.17863154, -1.02637815, -0.70822835, 15.25766277, -64.07953644, 43.63116455, 0.04722567, -0.08068594, -3.52683473, 0.99952608, -0.00039026, 0.00071647, 0.03077227, -0.01930303, 0.93327570, -0.65446883, 87.59600067, 1211.19250488, 39.50999832, 0.00000000
1, 0.6000, 60, 0.01357027, -0.93575984, -0.34611186, 0.60293263, -0.49269855, -0.61041528, 15.25766277, -64.07953644, 43.63116455, 0.05313449, -0.07667944, -3.53368735, 0.99952424, -0.00044283, 0.00068313, 0.03083202, -0.01493387, 0.93487126, -0.65388680, 87.59600067, 1211.19250488, 39.50999832, 0.00000000
1, 0.6100, 61, 0.01092979, -0.94147742, -0.34162796, 0.79788482, -0.07776514, -0.70775813, 13.83164692, -62.14445114, 43.55503845, 0.07494771, -0.07829369, -3.58667660, 0.99950981, -0.00063234, 0.00070337, 0.03129408, -0.01223247, 0.94039869, -0.65837061, 87.59600067, 1211.19250488, 39.50999832, 0.00000000
1, 0.6200, 62, 0.00666317, -0.94830120, -0.34403113, 0.79405338, 0.07374431, -0.52877802, 14.05103493, -61.30884552, 43.26955795, 0.08285581, -0.07308409, -3.58794880, 0.99950951, -0.00070273, 0.00066010, 0.03130516, -0.00796766, 0.94691110, -0.65596706, 87.59600067, 1211.19250488, 39.50999832, 0.00000000
1, 0.6300, 63, 0.00167758, -0.95202744, -0.34042010, 0.70104915, 0.22512341, -0.38468441, 13.64882374, -61.61669922, 43.30761719, 0.08987982, -0.06868801, -3.58729720, 0.99950957, -0.00076520, 0.00062367, 0.03129947, -0.00290395, 0.95050144, -0.65957797, 87.59600067, 1211.19250488, 39.50999832, 0.00000000
1, 0.6400, 64, 0.00089445, -0.95272082, -0.34166434, 0.37275702, 0.12937689, 0.07134317, 14.30698395, -62.71617889, 43.57406616, 0.09363187, -0.06890868, -3.58590603, 0.99950993, -0.00079788, 0.00062661, 0.03128731, -0.00209868, 0.95110428, -0.65833360, 87.59600067, 1211.19250488, 39.50999832, 0.00000000
1, 0.6500, 65, 0.00269109, -0.95215720, -0.34290218, 0.03320454, -0.07998902, 0.12071542, 14.30698395, -62.71617889, 43.57406616, 0.09394886, -0.07031906, -3.58623910, 0.99950987, -0.00080026, 0.00063900, 0.03129020, -0.00390881, 0.95050895, -0.65709573, 87.59600067, 1211.19250488, 39.50999832, 0.00000000
1, 0.6600, 66, 0.00599200, -0.94756645, -0.34289476, -0.19881180, -0.20188737, 0.11886259, 13.86821175, -62.49628448, 43.57406616, 0.12073228, -0.11779249, -3.63585091, 0.99949569, -0.00102045, 0.00106084, 0.03172233, -0.00744109, 0.94582534, -0.65710258, 87.59600067, 1211.19250488, 39.50999832, 0.00000000
1, 0.6700, 67, 0.01008343, -0.94164068, -0.34369987, -0.46676171, -0.28947499, 0.10026274, 13.83164692, -62.40832901, 43.44084167, 0.11603533, -0.11973806, -3.63814068, 0.99949515, -0.00097892, 0.00107653, 0.03174233, -0.01216136, 0.93958199, -0.65629590, 87.59600067, 1211.19250488, 39.50999832, 0.00000000
1, 0.6800, 68, 0.01347514, -0.93922299, -0.34306088, -0.39598915, -0.23802704, 0.13628438, 14.12416077, -61.08895111, 43.17439651, 0.11204626, -0.12184201, -3.63983345, 0.99949467, -0.00094353, 0.00109379, 0.03175712, -0.01559373, 0.93724716, -0.65693486, 87.59600067, 1211.19250488, 39.50999832, 0.00000000
1, 0.6900, 69, 0.01553236, -0.93941563, -0.34442440, -0.46783930, -0.11737414, 0.06872763, 13.75851536, -62.23241043, 43.28859329, 0.10735103, -0.12289083, -3.64061165, 0.99949443, -0.00090228, 0.00110164, 0.03176394, -0.01766972, 0.93751180, -0.65557146, 87.59600067, 1211.19250488, 39.50999832, 0.00000000
1, 0.7000, 70, 0.01719180, -0.94010800, -0.34539580, -0.36023870, 0.17821914, -0.11874854, 14.05103493, -63.55178452, 43.19342804, 0.10376617, -0.12115570, -3.63929391, 0.99949479, -0.00087150, 0.00108550, 0.03175249, -0.01932359, 0.93826848, -0.65460026, 87.59600067, 1211.19250488, 39.50999832, 0.00000000
1, 0.7100, 71, 0.01454597, -0.94339234, -0.34843281, -0.26940584, 0.31901032, -0.29184961, 14.05103493, -63.55178452, 43.19342804, 0.09969462, -0.12182923, -3.68569732, 0.99948186, -0.00083536, 0.00109059, 0.03215726, -0.01663871, 0.94161975, -0.65156341, 87.59600067, 1211.19250488, 39.50999832, 0.00000000
1, 0.7200, 72, 0.01130566, -0.94486761, -0.34678650, -0.10664770, 0.06183866, -0.22744112, 14.16072655, -63.55178452, 43.42181396, 0.09862223, -0.11948042, -3.68588591, 0.99948186, -0.00082666, 0.00106980, 0.03215894, -0.01340560, 0.94314116, -0.65320981, 87.59600067, 1211.19250488, 39.50999832, 0.00000000
1, 0.7300, 73, 0.01069313, -0.94841629, -0.34460330, -0.10349017, -0.17715396, -0.30278853, 13.72195435, -63.37586975, 43.45987701, 0.09755271, -0.11725502, -3.68858218, 0.99948120, -0.00081793, 0.00105011, 0.03218248, -0.01275335, 0.94669378, -0.65539312, 87.59600067, 1211.19250488, 39.50999832, 0.00000000
1, 0.7400, 74, 0.00891196, -0.95241302, -0.34609753, -0.28158835, -0.41984582, -0.23703265, 13.64882374, -62.89209366, 43.09827042, 0.09465779, -0.11649101, -3.69329715, 0.99947989, -0.00079286, 0.00104267, 0.03222364, -0.01094502, 0.95074075, -0.65389901, 87.59600067, 1211.19250488, 39.50999832, 0.00000000
1, 0.7500, 75, 0.00979923, -0.95153999, -0.34651235, -0.40790179, -0.62981600, -0.04769906, 13.28317833, -62.67220306, 43.28859329, 0.09048768, -0.11822943, -3.69929075, 0.99947822, -0.00075594, 0.00105670, 0.03227594, -0.01185171, 0.94993335, -0.65348423, 87.59600067, 1211.19250488, 39.50999832, 0.00000000
1, 0.7600, 76, 0.00910771, -0.95119375, -0.34590206, -0.42593586, -0.69942743, 0.00362753, 13.28317833, -62.67220306, 43.28859329, 0.09257186, -0.13548028, -3.75369477, 0.99946254, -0.00076869, 0.00120811, 0.03275031, -0.01126694, 0.94963664, -0.65409446, 87.59600067, 1211.19250488, 39.50999832, 0.00000000
1, 0.7700, 77, 0.00849016, -0.94909263, -0.34632450, -0.51237118, -0.73099774, -0.20771144, 14.19729233, -62.49628448, 43.02214050, 0.08733462, -0.13606441, -3.76118207, 0.99946046, -0.00072276, 0.00121176, 0.03281567, -0.01086229, 0.94753802, -0.65367150, 87.59600067, 1211.19250488, 39.50999832, 0.00000000
1, 0.7800, 78, 0.01007743, -0.94341934, -0.34697413, -0.45719135, -0.69426435, -0.33015615, 14.30698395, -62.67220306, 43.44084167, 0.08263607, -0.13538647, -3.76876426, 0.99945831, -0.00068190, 0.00120454, 0.03288185, -0.01244830, 0.94194746, -0.65302199, 87.59600067, 1211.19250488, 39.50999832, 0.00000000
1, 0.7900, 79, 0.00912327, -0.94112796, -0.34819889, -0.40324053, -0.71099508, -0.33067298, 13.61225796, -64.51932526, 43.38374710, 0.07848182, -0.13475342, -3.77650213, 0.99945617, -0.00064576, 0.00119787, 0.03294939, -0.01147957, 0.93973881, -0.65179741, 87.59600067, 1211.19250488, 39.50999832, 0.00000000
1, 0.8000, 80, 0.01040399, -0.94007725, -0.34790045, -0.13466538, -0.69201857, -0.31351754, 13.35630894, -63.85964203, 43.44084167, 0.07701012, -0.13421197, -3.78406572, 0.99945390, -0.00063300, 0.00119277, 0.03301537, -0.01274975, 0.93872547, -0.65209591, 87.59600067, 1211.19250488, 39.50999832, 0.00000000
1, 0.8100, 81, 0.00975101, -0.94159931, -0.34471858, -0.10084494, -0.76350027, -0.12176241, 13.35630894, -63.85964203, 43.44084167, 0.08235283, -0.14525680, -3.83900428, 0.99943787, -0.00067580, 0.00129096, 0.03349441, -0.01214946, 0.94023663, -0.65527761, 87.59600067, 1211.19250488, 39.50999832, 0.00000000
1, 0.8200, 82, 0.00867792, -0.94146615, -0.34251401, -0.03409254, -0.64745295, 0.16172603, 13.75851536, -61.39680099, 42.98407745, 0.08193140, -0.14902206, -3.84450865, 0.99943620, -0.00067096, 0.00132371, 0.03354239, -0.01125346, 0.94003379, -0.65748167, 87.59600067, 1211.19250488, 39.50999832, 0.00000000
1, 0.8300, 83, 0.00504906, -0.94270176, -0.34293175, 0.05563530, -0.68134165, 0.17831729, 13.35630894, -61.52874374, 43.25052261, 0.08241152, -0.15306483, -3.85028005, 0.99943447, -0.00067390, 0.00135915, 0.03359270, -0.00769496, 0.94126976, -0.65706378, 87.59600067, 1211.19250488, 39.50999832, 0.00000000
1, 0.8400, 84, 0.00387597, -0.94642735, -0.34364814, 0.09097598, -0.54297841, 0.12838314, 14.12416077, -63.19995117, 43.02214050, 0.08324482, -0.15615548, -3.85494423, 0.99943304, -0.00068020, 0.00138637, 0.03363335, -0.00657801, 0.94498223, -0.65634716, 87.59600067, 1211.19250488, 39.50999832, 0.00000000
1, 0.8500, 85, 0.00204319, -0.94964743, -0.34415278, 0.21457312, -0.49225456, 0.23454122, 14.23385715, -63.77168274, 43.28859329, 0.08534241, -0.16006194, -3.85878801, 0.99943191, -0.00069730, 0.00142108, 0.03366682, -0.00481014, 0.94817281, -0.65584230, 87.59600067, 1211.19250488, 39.50999832, 0.00000000
1, 0.8600, 86, 0.00522602, -0.95303923, -0.34457308, 0.25227869, -0.80186933, 0.29822972, 14.23385715, -63.77168274, 43.28859329, 0.09516078, -0.17672800, -3.91268301, 0.99941564, -0.00077730, 0.00156969, 0.03413662, -0.00812635, 0.95149469, -0.65542150, 87.59600067, 1211.19250488, 39.50999832, 0.00000000
1, 0.8700, 87, 0.00598306, -0.95419383, -0.34411156, 0.16187221, -0.61274606, 0.23216926, 13.86821175, -62.27638626, 43.38374710, 0.09671607, -0.18103419, -3.91765022, 0.99941421, -0.00078951, 0.00160775, 0.03417989, -0.00911303, 0.95250988, -0.65588212, 87.59600067, 1211.19250488, 39.50999832, 0.00000000
1, 0.8800, 88, 0.00628098, -0.94895494, -0.34154776, -0.10875025, -0.46076792, 0.25377080, 13.42943573, -61.70465851, 43.45987701, 0.09557611, -0.18501289, -3.92106962, 0.99941313, -0.00077833, 0.00164213, 0.03420970, -0.00948425, 0.94727755, -0.65844572, 87.59600067, 1211.19250488, 39.50999832, 0.00000000
1, 0.8900, 89, 0.00419329, -0.94413829, -0.34153602, -0.34552473, -0.03349100, 0.24589998, 13.83164692, -62.01251602, 43.04117203, 0.09213076, -0.18743578, -3.92046809, 0.99941331, -0.00074757, 0.00166223, 0.03420448, -0.00744979, 0.94250464, -0.65845740, 87.59600067, 1211.19250488, 39.50999832, 0.00000000
1, 0.9000, 90, 0.00357547, -0.93986726, -0.34231213, -0.04301047, 0.03550592, 0.36947301, 14.16072655, -62.89209366, 43.38374710, 0.09173165, -0.19078034, -3.91885090, 0.99941361, -0.00074312, 0.00169127, 0.03419036, -0.00688544, 0.93827033, -0.65768117, 87.59600067, 1211.19250488, 39.50999832, 0.00000000
1, 0.9100, 91, 0.00563390, -0.93731731, -0.34162521, -0.04670690, 0.36054894, 0.42905283, 14.16072655, -62.89209366, 43.38374710, 0.09747173, -0.20974246, -3.96177959, 0.99940044, -0.00078682, 0.00185865, 0.03456452, -0.00906251, 0.93569905, -0.65836757, 87.59600067, 1211.19250488, 39.50999832, 0.00000000
1, 0.9200, 92, 0.00753976, -0.93842107, -0.34533530, -0.01247639, 0.56695008, 0.41570911, 13.21005249, -64.60728455, 43.47890854, 0.09743946, -0.21167178, -3.95501471, 0.99940246, -0.00078607, 0.00187542, 0.03450551, -0.01121985, 0.93672371, -0.65465653, 87.59600067, 1211.19250488, 39.50999832, 0.00000000
1, 0.9300, 93, 0.00959789, -0.94184965, -0.34444511, 0.21674895, 0.80691206, 0.54310083, 13.90477753, -61.44078064, 43.53600693, 0.09974039, -0.21396205, -3.94560361, 0.99940526, -0.00080560, 0.00189603, 0.03442338, -0.01331617, 0.94013107, -0.65554649, 87.59600067, 1211.19250488, 39.50999832, 0.00000000
1, 0.9400, 94, 0.01050276, -0.94893008, -0.34310141, 0.18185575, 0.80777687, 0.47291252, 13.61225796, -61.92455292, 43.49793625, 0.10168707, -0.21559116, -3.93642378, 0.99940801, -0.00082225, 0.00191075, 0.03434327, -0.01425213, 0.94716883, -0.65689003, 87.59600067, 1211.19250488, 39.50999832, 0.00000000
1, 0.9500, 95, 0.01388439, -0.95452285, -0.34098154, 0.00513152, 0.30664721, 0.60354412, 13.50256634, -62.89209366, 42.85084915, 0.10180182, -0.22018580, -3.93146038, 0.99940938, -0.00082195, 0.00195082, 0.03429994, -0.01769436, 0.95274603, -0.65900970, 87.59600067, 1211.19250488, 39.50999832, 0.00000000
1, 0.9600, 96, 0.01414220, -0.95556694, -0.34024778, -0.13609587, -0.07327205, 0.68388063, 13.50256634, -62.89209366, 42.85084915, 0.12884833, -0.22327189, -3.97938061, 0.99939471, -0.00105609, 0.00198628, 0.03471738, -0.01804158, 0.95367771, -0.65974277, 87.59600067, 1211.19250488, 39.50999832, 0.00000000
1, 0.9700, 97, 0.01415510, -0.95154202, -0.33831114, -0.40127057, -0.33095467, 0.57380456, 13.57569790, -61.74863815, 43.32665253, 0.12481859, -0.22979365, -3.98042655, 0.99939430, -0.00101895, 0.00204194, 0.03472650, -0.01812593, 0.94933993, -0.66167855, 87.59600067, 1211.19250488, 39.50999832, 0.00000000
1, 0.9800, 98, 0.01452410, -0.94528049, -0.33872375, -0.44952014, -0.42884883, 0.23790628, 13.57569790, -62.80414200, 43.57406616, 0.12027170, -0.23350967, -3.98354411, 0.99939328, -0.00097811, 0.00207300, 0.03475374, -0.01857951, 0.94314778, -0.66126579, 87.59600067, 1211.19250488, 39.50999832, 0.00000000
1, 0.9900, 99, 0.01522307, -0.94208777, -0.33949322, -0.60586041, -0.58019167, -0.02847173, 13.68538952, -63.63974380, 43.19342804, 0.11412871, -0.23525341, -3.98898339, 0.99939167, -0.00092390, 0.00208639, 0.03480127, -0.01932067, 0.94006073, -0.66049635, 87.59600067, 1211.19250488, 39.50999832, 0.00000000
1, 1.0000, 100, 0.01383665, -0.93932527, -0.33807319, -0.49843231, -0.31947702, -0.18152407, 13.53913212, -62.62821960, 42.83182144, 0.10908979, -0.23465966, -3.99251246, 0.99939072, -0.00088007, 0.00207971, 0.03483215, -0.01794174, 0.93738556, -0.66191649, 87.59600067, 1211.19250488, 39.50999832, 0.00000000
1, 1.0100, 101, 0.01095758, -0.94066197, -0.33912957, -0.44129112, -0.47113755, -0.32551387, 13.31974411, -62.23241043, 42.88891602, 0.12469335, -0.24293727, -4.04706621, 0.99937367, -0.00101262, 0.00215712, 0.03530756, -0.01508173, 0.93872637, -0.66086000, 87.59600067, 1211.19250488, 39.50999832, 0.00000000
1, 1.0200, 102, 0.01020983, -0.94241375, -0.33893493, -0.40262040, -0.53688836, -0.48521924, 13.31974411, -62.23241043, 42.88891602, 0.12058012, -0.24024993, -4.05371094, 0.99937177, -0.00097745, 0.00213248, 0.03536561, -0.01441877, 0.94028300, -0.66105390, 87.59600067, 1211.19250488, 39.50999832, 0.00000000
1, 1.0300, 103, 0.01216887, -0.94516987, -0.34219474, -0.29518721, -0.51889145, -0.48516956, 14.01446915, -61.92455292, 43.80245209, 0.11754028, -0.23749708, -4.06021404, 0.99936974, -0.00095167, 0.00210759, 0.03542241, -0.01633321, 0.94310021, -0.65779448, 87.59600067, 1211.19250488, 39.50999832, 0.00000000
1, 1.0400, 104, 0.00936767, -0.94769466, -0.33928967, -0.08203461, -0.53693497, -0.32799643, 13.50256634, -62.58424377, 43.57406616, 0.11663156, -0.23627818, -4.06636906, 0.99936795, -0.00094401, 0.00209672, 0.03547612, -0.01349611, 0.94564843, -0.66069973, 87.59600067, 1211.19250488, 39.50999832, 0.00000000
1, 1.0500, 105, 0.00860606, -0.94501090, -0.34204793, -0.06356434, -0.62284470, -0.31228077, 13.50256634, -63.06801224, 42.81278610, 0.11590657, -0.23551248, -4.07328701, 0.99936575, -0.00093779, 0.00208988, 0.03553647, -0.01272249, 0.94298595, -0.65794158, 87.59600067, 1211.19250488, 39.50999832, 0.00000000
1, 1.0600, 106, 0.00712063, -0.94239181, -0.34327608, -0.09916870, -0.57080811, -0.36381271, 13.75851536, -62.27638626, 42.92698288, 0.11771706, -0.24474393, -4.12772846, 0.99934864, -0.00094969, 0.00217140, 0.03601113, -0.01125957, 0.94036531, -0.65671325, 87.59600067, 1211.19250488, 39.50999832, 0.00000000
1, 1.0700, 107, 0.00638134, -0.94249064, -0.34350026, -0.26102164, -0.52061594, -0.36226228, 13.75851536, -62.27638626, 42.92698288, 0.11502130, -0.24315089, -4.13382053, 0.99934673, -0.00092657, 0.00215671, 0.03606433, -0.01063248, 0.94046712, -0.65648866, 87.59600067, 1211.19250488, 39.50999832, 0.00000000
1, 1.0800, 108, 0.00670557, -0.94481695, -0.34455952, -0.18818527, -0.58809125, -0.39906034, 13.83164692, -62.10047150, 43.51697159, 0.11305042, -0.24144530, -4.14068604, 0.99934459, -0.00090979, 0.00214127, 0.03612426, -0.01093838, 0.94283742, -0.65542960, 87.59600067, 1211.19250488, 39.50999832, 0.00000000
1, 1.0900, 109, 0.00763517, -0.94458115, -0.34513229, -0.16985498, -0.60481673, -0.41704643, 13.75851536, -64.78320312, 43.45987701, 0.11123693, -0.23962499, -4.14777517, 0.99934250, -0.00089441, 0.00212488, 0.03618613, -0.01182751, 0.94262666, -0.65485710, 87.59600067, 1211.19250488, 39.50999832, 0.00000000
1, 1.1000, 110, 0.00918344, -0.94852543, -0.34883586, -0.38711384, -0.53961319, -0.30954096, 14.16072655, -64.03556061, 43.28859329, 0.10729006, -0.23859580, -4.15383816, 0.99934059, -0.00086021, 0.00211470, 0.03623909, -0.01335802, 0.94663221, -0.65115368, 87.59600067, 1211.19250488, 39.50999832, 0.00000000
1, 1.1100, 111, 0.01176857, -0.95002502, -0.34798762, -0.15684859, -0.33309713, -0.23559055, 13.13692093, -62.23241043, 42.71763229, 0.11254656, -0.23930280, -4.20600271, 0.99932384, -0.00090486, 0.00212294, 0.03669390, -0.01592887, 0.94813478, -0.65200198, 87.59600067, 1211.19250488, 39.50999832, 0.00000000
1, 1.1200, 112, 0.01075578, -0.94715846, -0.34702432, -0.34173086, -0.04634551, -0.01805650, 13.13692093, -62.23241043, 42.71763229, 0.10912925, -0.23929510, -4.20644283, 0.99932384, -0.00087505, 0.00212178, 0.03669780, -0.01493235, 0.94523466, -0.65296507, 87.59600067, 1211.19250488, 39.50999832, 0.00000000
1, 1.1300, 113, 0.00655895, -0.94486672, -0.34542301, -0.23679781, 0.24609572, -0.01222933, 13.06379032, -62.10047150, 43.13633347, 0.10679302, -0.23832940, -4.20413399, 0.99932456, -0.00085503, 0.00211260, 0.03667772, -0.01072601, 0.94299227, -0.65456659, 87.59600067, 1211.19250488, 39.50999832, 0.00000000
1, 1.1400, 114, 0.00242383, -0.94185257, -0.34513885, 0.15389793, 0.50476325, 0.09748320, 13.46600056, -63.99157715, 43.19342804, 0.10840228, -0.23749518, -4.19909573, 0.99932623, -0.00086942, 0.00210580, 0.03663376, -0.00657413, 0.93997425, -0.65485072, 87.59600067, 1211.19250488, 39.50999832, 0.00000000
1, 1.1500, 115, 0.00198662, -0.93937725, -0.34198752, 0.13644642, 0.74791318, -0.09071288, 13.72195435, -63.85964203, 43.65019608, 0.10985916, -0.23405311, -4.19242430, 0.99932837, -0.00088335, 0.00207620, 0.03657558, -0.00610005, 0.93746907, -0.65800214, 87.59600067, 1211.19250488, 39.50999832, 0.00000000
1, 1.1600, 116, 0.00275332, -0.93925321, -0.34139365, 0.06298497, 0.88399953, -0.05247042, 13.94133854, -63.11199188, 43.59310150, 0.12083429, -0.25708407, -4.23058796, 0.99931568, -0.00097095, 0.00228087, 0.03690797, -0.00691344, 0.93728036, -0.65859574, 87.59600067, 1211.19250488, 39.50999832, 0.00000000
1, 1.1700, 117, 0.00340044, -0.94242847, -0.34245548, -0.09760165, 0.84900099, -0.08787149, 13.94133854, -63.11199188, 43.59310150, 0.11995994, -0.25332075, -4.22290659, 0.99931818, -0.00096469, 0.00224771, 0.03684103, -0.00785005, 0.94032359, -0.65753239, 87.59600067, 1211.19250488, 39.50999832, 0.00000000
1, 1.1800, 118, 0.00585513, -0.94624335, -0.34380981, -0.26161602, 0.70592779, 0.19087534, 13.57569790, -62.49628448, 43.32665253, 0.11744162, -0.25266373, -4.21558666, 0.99932057, -0.00094308, 0.00224111, 0.03677726, -0.01026596, 0.94417822, -0.65617824, 87.59600067, 1211.19250488, 39.50999832, 0.00000000
1, 1.1900, 119, 0.00760370, -0.94832236, -0.34177491, -0.06334479, 0.62199807, 0.17092589, 12.91753292, -62.62821960, 43.25052261, 0.11689826, -0.25211161, -4.20914888, 0.99932265, -0.00093864, 0.00223606, 0.03672114, -0.01200856, 0.94628096, -0.65821332, 87.59600067, 1211.19250488, 39.50999832, 0.00000000
1, 1.2000, 120, 0.01082728, -0.94870389, -0.34165013, -0.15317510, 0.58641601, 0.20560928, 13.28317833, -62.49628448, 43.36471558, 0.11544763, -0.25200325, -4.20290613, 0.99932468, -0.00092615, 0.00223460, 0.03666672, -0.01522808, 0.94667602, -0.65833813, 87.59600067, 1211.19250488, 39.50999832, 0.00000000
1, 1.2100, 121, 0.01011525, -0.95082277, -0.34133464, -0.36924285, 0.84373868, 0.10621044, 13.28317833, -63.72769928, 43.80245209, 0.12513062, -0.25315619, -4.24294376, 0.99931169, -0.00100944, 0.00224811, 0.03701567, -0.01450930, 0.94878948, -0.65865356, 87.59600067, 1211.19250488, 39.50999832, 0.00000000
1, 1.2200, 122, 0.01159363, -0.95430738, -0.34131271, -0.38772938, 0.87761688, 0.12455755, 13.28317833, -63.72769928, 43.80245209, 0.12136403, -0.25127858, -4.23421192, 0.99931455, -0.00097737, 0.00223044, 0.03693962, -0.01599116, 0.95216453, -0.65867531, 87.59600067, 1211.19250488, 39.50999832, 0.00000000
1, 1.2300, 123, 0.01392304, -0.95347214, -0.34383506, -0.65536660, 0.75572377, 0.10523558, 13.75851536, -62.32036591, 43.34568787, 0.11489887, -0.24964267, -4.22664404, 0.99931711, -0.00092166, 0.00221403, 0.03687376, -0.01828990, 0.95141625, -0.65615332, 87.59600067, 1211.19250488, 39.50999832, 0.00000000
1, 1.2400, 124, 0.01780569, -0.94951701, -0.34554887, -0.72735173, 0.70284307, 0.15707898, 13.31974411, -64.07953644, 43.80245209, 0.10773572, -0.24867775, -4.21938467, 0.99931955, -0.00085964, 0.00220326, 0.03681061, -0.02215258, 0.94759178, -0.65443987, 87.59600067, 1211.19250488, 39.50999832, 0.00000000
1, 1.2500, 125, 0.01384743, -0.94762003, -0.34579387, -0.83081347, 0.46415257, 0.01175091, 14.19729233, -63.55178452, 43.72632980, 0.09948536, -0.24717563, -4.21484423, 0.99932104, -0.00078826, 0.00218748, 0.03677118, -0.01817062, 0.94582623, -0.65419519, 87.59600067, 1211.19250488, 39.50999832, 0.00000000
1, 1.2600, 126, 0.01067176, -0.94352412, -0.34752223, -0.88592815, 0.63554484, -0.00205543, 13.42943573, -62.67220306, 43.21246338, 0.09021665, -0.24865520, -4.25630617, 0.99930769, -0.00070616, 0.00219766, 0.03713292, -0.01497893, 0.94188565, -0.65246719, 87.59600067, 1211.19250488, 39.50999832, 0.00000000
1, 1.2700, 127, 0.00849549, -0.94099694, -0.34740481, -0.73991048, 0.57035166, -0.14449930, 13.02722931, -63.15597153, 43.38374710, 0.08288544, -0.24532296, -4.25133181, 0.99930936, -0.00064341, 0.00216620, 0.03708971, -0.01280144, 0.93950939, -0.65258485, 87.59600067, 1211.19250488, 39.50999832, 0.00000000
1, 1.2800, 128, 0.00903416, -0.94061518, -0.34595007, -0.39737314, 0.50584638, -0.23479511, 13.02722931, -63.15597153, 43.38374710, 0.07895283, -0.24136131, -4.24732876, 0.99931085, -0.00061047, 0.00213036, 0.03705490, -0.01327519, 0.93921584, -0.65403998, 87.59600067, 1211.19250488, 39.50999832, 0.00000000
1, 1.2900, 129, 0.00952300, -0.93976742, -0.34313872, -0.12713321, 0.42276588, -0.27252528, 13.61225796, -62.14445114, 43.80245209, 0.07772032, -0.23733713, -4.24429512, 0.99931192, -0.00060108, 0.00209485, 0.03702849, -0.01369383, 0.93840206, -0.65685165, 87.59600067, 1211.19250488, 39.50999832, 0.00000000
1, 1.3000, 130, 0.01087827, -0.94278181, -0.34406859, 0.08573920, 0.54309070, -0.18275546, 13.94133854, -63.85964203, 43.63116455, 0.07864014, -0.23373932, -4.23985195, 0.99931341, -0.00061034, 0.00206375, 0.03698975, -0.01498135, 0.94141769, -0.65592206, 87.59600067, 1211.19250488, 39.50999832, 0.00000000
1, 1.3100, 131, 0.01035393, -0.94703323, -0.34367403, 0.19277361, 0.57795376, -0.16477169, 14.01446915, -64.29943085, 43.72632980, 0.09040605, -0.23856626, -4.28215027, 0.99929947, -0.00071061, 0.00210990, 0.03735837, -0.01443183, 0.94560033, -0.65631658, 87.59600067, 1211.19250488, 39.50999832, 0.00000000
1, 1.3200, 132, 0.00870632, -0.95176297, -0.34495667, 0.24618584, 0.64727354, -0.18105605, 13.42943573, -64.56330872, 43.66922760, 0.09294054, -0.23462252, -4.27675295, 0.99930137, -0.00073410, 0.00207630, 0.03731129, -0.01282640, 0.95016491, -0.65503359, 87.59600067, 1211.19250488, 39.50999832, 0.00000000
1, 1.3300, 133, 0.00878355, -0.95003337, -0.34632802, 0.19209988, 0.49047065, -0.06113898, 13.42943573, -64.56330872, 43.66922760, 0.09491497, -0.23235013, -4.27239799, 0.99930274, -0.00075213, 0.00205710, 0.03727329, -0.01285073, 0.94838804, -0.65366232, 87.59600067, 1211.19250488, 39.50999832, 0.00000000
1, 1.3400, 134, 0.01256453, -0.94819427, -0.33944294, 0.25157368, -0.21323062, -0.02338045, 14.12416077, -63.15597153, 43.55503845, 0.09740440, -0.23286617, -4.27452564, 0.99930209, -0.00077363, 0.00206242, 0.03729180, -0.01662585, 0.94650394, -0.66054738, 87.59600067, 1211.19250488, 39.50999832, 0.00000000
1, 1.3500, 135, 0.01328522, -0.94665545, -0.33970097, -0.03422138, -0.28351957, -0.05914037, 13.46600056, -62.27638626, 43.57406616, 0.09703567, -0.23329164, -4.27738905, 0.99930114, -0.00077023, 0.00206603, 0.03731677, -0.01735461, 0.94495755, -0.66028929, 87.59600067, 1211.19250488, 39.50999832, 0.00000000
1, 1.3600, 136, 0.01153018, -0.94502807, -0.34013921, -0.05374805, -0.21619539, 0.01264804, 12.99066353, -62.45230865, 43.32665253, 0.15895860, -0.25194097, -4.32921743, 0.99928319, -0.00130314, 0.00224942, 0.03776738, -0.01569065, 0.94307274, -0.65985012, 87.59600067, 1211.19250488, 39.50999832, 0.00000000
1, 1.3700, 137, 0.01253606, -0.94422567, -0.33981478, -0.21440455, -0.21660189, -0.03960382, 13.68538952, -62.84811401, 43.30761719, 0.15679061, -0.25231859, -4.33135271, 0.99928248, -0.00128407, 0.00225202, 0.03778603, -0.01693773, 0.94147378, -0.66017175, 87.59600067, 1211.19250488, 39.50999832, 0.00000000
1, 1.3800, 138, 0.00971348, -0.94626707, -0.34256786, -0.10421757, -0.17801362, -0.25006941, 13.68538952, -62.84811401, 43.30761719, 0.15571660, -0.25058585, -4.33386993, 0.99928170, -0.00127522, 0.00223659, 0.03780803, -0.01410499, 0.94354284, -0.65741879, 87.59600067, 1211.19250488, 39.50999832, 0.00000000
1, 1.3900, 139, 0.00903034, -0.94747913, -0.34369171, 0.10697352, -0.00766314, -0.07135115, 12.99066353, -63.15597153, 43.47890854, 0.15677634, -0.24993870, -4.33420277, 0.99928164, -0.00128467, 0.00223130, 0.03781092, -0.01339407, 0.94475108, -0.65629506, 87.59600067, 1211.19250488, 39.50999832, 0.00000000
1, 1.4000, 140, 0.00895094, -0.94657153, -0.34331682, 0.14258911, 0.23504943, -0.20698391, 13.28317833, -64.03556061, 43.25052261, 0.15821996, -0.24718316, -4.33273649, 0.99928212, -0.00129820, 0.00220773, 0.03779814, -0.01328202, 0.94381607, -0.65667003, 87.59600067, 1211.19250488, 39.50999832, 0.00000000
1, 1.4100, 141, 0.00746802, -0.94618106, -0.34434560, -0.02200145, 0.31668162, -0.02898095, 13.57569790, -62.84811401, 43.38374710, 0.16711035, -0.28244248, -4.37643242, 0.99926686, -0.00136313, 0.00251865, 0.03817853, -0.01192439, 0.94337964, -0.65564048, 87.59600067, 1211.19250488, 39.50999832, 0.00000000
1, 1.4200, 142, 0.00695137, -0.94598275, -0.34582669, -0.09443895, 0.36729065, -0.01011699, 12.88097191, -62.45230865, 43.40278244, 0.16620314, -0.28107673, -4.37300014, 0.99926805, -0.00135575, 0.00250640, 0.03814864, -0.01186428, 0.94307441, -0.65415704, 87.59600067, 1211.19250488, 39.50999832, 0.00000000
1, 1.4300, 143, 0.01001192, -0.94568688, -0.34234509, -0.23901777, 0.38217175, 0.06095149, 12.88097191, -62.45230865, 43.40278244, 0.16387802, -0.28032750, -4.36916876, 0.99926937, -0.00133581, 0.00249905, 0.03811529, -0.01490547, 0.94281214, -0.65763879, 87.59600067, 1211.19250488, 39.50999832, 0.00000000
1, 1.4400, 144, 0.01206579, -0.94997096, -0.33936885, -0.51017392, 0.37748250, 0.21988736, 13.42943573, -61.30884552, 43.89761353, 0.15883321, -0.28108662, -4.36478329, 0.99927092, -0.00129166, 0.00250394, 0.03807715, -0.01696328, 0.94716632, -0.66061527, 87.59600067, 1211.19250488, 39.50999832, 0.00000000
1, 1.4500, 145, 0.01501048, -0.95215124, -0.33950615, -0.43601248, -0.10452480, 0.35015327, 13.68538952, -63.24393463, 43.68825912, 0.15447029, -0.28473482, -4.36446953, 0.99927092, -0.00125241, 0.00253430, 0.03807446, -0.01995080, 0.94942784, -0.66047794, 87.59600067, 1211.19250488, 39.50999832, 0.00000000
1, 1.4600, 146, 0.01577498, -0.95130950, -0.33998406, -0.81005895, -0.32989213, 0.31140316, 13.90477753, -63.33188629, 43.66922760, 0.15826944, -0.28283381, -4.41527271, 0.99925393, -0.00128505, 0.00251956, 0.03851742, -0.02076653, 0.94865102, -0.65999997, 87.59600067, 1211.19250488, 39.50999832, 0.00000000
1, 1.4700, 147, 0.01597849, -0.94834447, -0.34029901, -0.76966953, -0.58432341, 0.14772567, 13.10035515, -62.93607712, 43.25052261, 0.15051524, -0.28624603, -4.42010736, 0.99925238, -0.00121618, 0.00254676, 0.03855971, -0.02095581, 0.94566846, -0.65968502, 87.59600067, 1211.19250488, 39.50999832, 0.00000000
1, 1.4800, 148, 0.01548339, -0.94379109, -0.34147173, -0.60528916, -0.56217933, -0.08082975, 13.10035515, -62.93607712, 43.25052261, 0.14440173, -0.28743529, -4.42555523, 0.99925059, -0.00116235, 0.00255513, 0.03860733, -0.02049628, 0.94123197, -0.65851241, 87.59600067, 1211.19250488, 39.50999832, 0.00000000
1, 1.4900, 149, 0.01280204, -0.93836629, -0.34192368, -0.55134320, -0.33619225, -0.23444849, 13.21005249, -62.45230865, 42.94601059, 0.13883924, -0.28640130, -4.42942190, 0.99924928, -0.00111411, 0.00254427, 0.03864118, -0.01781167, 0.93590993, -0.65806079, 87.59600067, 1211.19250488, 39.50999832, 0.00000000
1, 1.5000, 150, 0.01139396, -0.93542981, -0.34191802, -0.33415404, -0.36680368, -0.35880479, 13.50256634, -64.07953644, 43.63116455, 0.13543914, -0.28430787, -4.43404818, 0.99924791, -0.00108506, 0.00252491, 0.03868163, -0.01636807, 0.93304849, -0.65806687, 87.59600067, 1211.19250488, 39.50999832, 0.00000000
1, 1.5100, 151, 0.00993719, -0.93809712, -0.34035307, -0.24479263, -0.27976334, -0.39240494, 13.57569790, -63.55178452, 43.55503845, 0.15297320, -0.28372711, -4.48637867, 0.99922991, -0.00123700, 0.00252633, 0.03913757, -0.01487982, 0.93567282, -0.65963179, 87.59600067, 1211.19250488, 39.50999832, 0.00000000
1, 1.5200, 152, 0.01304757, -0.94421887, -0.34174758, -0.17320123, -0.45273411, -0.27321237, 14.52637196, -63.59576416, 43.59310150, 0.15116867, -0.28272671, -4.49154377, 0.99922824, -0.00122150, 0.00251705, 0.03918266, -0.01798883, 0.94156826, -0.65823662, 87.59600067, 1211.19250488, 39.50999832, 0.00000000
1, 1.5300, 153, 0.01474777, -0.94715202, -0.33971930, -0.37249619, -0.28332707, -0.23388432, 14.52637196, -63.59576416, 43.59310150, 0.14739607, -0.28151196, -4.49494743, 0.99922711, -0.00118894, 0.00250520, 0.03921244, -0.01966709, 0.94455475, -0.66026521, 87.59600067, 1211.19250488, 39.50999832, 0.00000000
1, 1.5400, 154, 0.01283255, -0.94978410, -0.33889759, -0.32060897, -0.18113460, -0.16158143, 13.13692093, -62.40832901, 43.84051895, 0.14415787, -0.28062567, -4.49714899, 0.99922633, -0.00116096, 0.00249639, 0.03923172, -0.01773499, 0.94724882, -0.66108721, 87.59600067, 1211.19250488, 39.50999832, 0.00000000
1, 1.5500, 155, 0.01090658, -0.94879079, -0.33989608, -0.53570175, -0.16538349, -0.17817038, 13.68538952, -62.23241043, 43.51697159, 0.13876219, -0.27952018, -4.49921894, 0.99922580, -0.00111424, 0.00248492, 0.03924990, -0.01578873, 0.94633710, -0.66008902, 87.59600067, 1211.19250488, 39.50999832, 0.00000000
1, 1.5600, 156, 0.01111275, -0.94691926, -0.33849585, -0.62641585, -0.18467246, -0.09040681, 13.61225796, -62.45230865, 43.65019608, 0.15906967, -0.28446501, -4.55041647, 0.99920779, -0.00128849, 0.00253557, 0.03969583, -0.01601172, 0.94444680, -0.66148907, 87.59600067, 1211.19250488, 39.50999832, 0.00000000
1, 1.5700, 157, 0.00888726, -0.94877285, -0.33902574, -0.76907086, -0.21953039, -0.12585977, 13.79508114, -63.15597153, 43.93567276, 0.15134911, -0.28404915, -4.55277538, 0.99920708, -0.00122127, 0.00252930, 0.03971657, -0.01384413, 0.94607681, -0.66095835, 87.59600067, 1211.19250488, 39.50999832, 0.00000000
1, 1.5800, 158, 0.00721315, -0.94959295, -0.34080371, -1.00431502, -0.06784399, -0.06921599, 14.41668034, -63.37586975, 43.78342438, 0.14129969, -0.28364044, -4.55348110, 0.99920696, -0.00113376, 0.00252226, 0.03972295, -0.01216797, 0.94706076, -0.65918082, 87.59600067, 1211.19250488, 39.50999832, 0.00000000
1, 1.5900, 159, 0.00752341, -0.94851977, -0.34288487, -1.02628803, 0.18730104, 0.05926354, 14.41668034, -63.37586975, 43.78342438, 0.13106021, -0.28354213, -4.55133533, 0.99920785, -0.00104456, 0.00251783, 0.03970447, -0.01247134, 0.94616365, -0.65710008, 87.59600067, 1211.19250488, 39.50999832, 0.00000000
1, 1.6000, 160, 0.00916009, -0.94759160, -0.34418339, -1.18959606, 0.23577388, 0.16625217, 13.90477753, -62.58424377, 43.55503845, 0.11920822, -0.28428510, -4.54833746, 0.99920893, -0.00094102, 0.00252018, 0.03967857, -0.01411755, 0.94542992, -0.65580201, 87.59600067, 1211.19250488, 39.50999832, 0.00000000
1, 1.6100, 161, 0.01004363, -0.94474345, -0.34418407, -1.21139646, 0.52579755, 0.26030776, 14.05103493, -62.98005676, 44.01180267, 0.10771152, -0.28740668, -4.59000969, 0.99919444, -0.00083877, 0.00254372, 0.04004217, -0.01502311, 0.94279104, -0.65580165, 87.59600067, 1211.19250488, 39.50999832, 0.00000000
1, 1.6200, 162, 0.00759073, -0.94061613, -0.34725812, -0.99890655, 0.71502012, 0.33394894, 14.19729233, -63.19995117, 43.42181396, 0.09782719, -0.28805557, -4.58197260, 0.99919730, -0.00075253, 0.00254587, 0.03997230, -0.01261406, 0.93884873, -0.65272772, 87.59600067, 1211.19250488, 39.50999832, 0.00000000
1, 1.6300, 163, 0.00895617, -0.93828768, -0.34473425, -0.76741260, 0.97500020, 0.28597143, 13.50256634, -61.61669922, 43.21246338, 0.09028510, -0.28735492, -4.57169533, 0.99920088, -0.00068724, 0.00253707, 0.03988286, -0.01397893, 0.93666375, -0.65525180, 87.59600067, 1211.19250488, 39.50999832, 0.00000000
1, 1.6400, 164, 0.01039087, -0.93748719, -0.34388211, -0.33761111, 0.74879074, 0.28896394, 13.50256634, -61.61669922, 43.21246338, 0.08701166, -0.28746411, -4.56361485, 0.99920380, -0.00065884, 0.00253684, 0.03981247, -0.01541113, 0.93595767, -0.65610415, 87.59600067, 1211.19250488, 39.50999832, 0.00000000
1, 1.6500, 165, 0.01375295, -0.94123363, -0.34288767, -0.10783197, 0.69112873, 0.38400343, 13.53913212, -61.96853638, 43.09827042, 0.08602934, -0.28866583, -4.55579376, 0.99920642, -0.00065003, 0.00254693, 0.03974429, -0.01877879, 0.93972802, -0.65709859, 87.59600067, 1211.19250488, 39.50999832, 0.00000000
1, 1.6600, 166, 0.01595999, -0.94524080, -0.34387690, -0.08557900, 0.29761538, 0.32292736, 13.94133854, -63.41984940, 43.38374710, 0.10407077, -0.27973786, -4.60151625, 0.99919063, -0.00080945, 0.00247566, 0.04014265, -0.02097573, 0.94365841, -0.65610933, 87.59600067, 1211.19250488, 39.50999832, 0.00000000
1, 1.6700, 167, 0.01591248, -0.94781959, -0.34078828, -0.17351785, 0.10823143, 0.31921482, 13.64882374, -63.85964203, 43.36471558, 0.10236411, -0.28235763, -4.59936190, 0.99919128, -0.00079370, 0.00249789, 0.04012388, -0.02082554, 0.94602114, -0.65919805, 87.59600067, 1211.19250488, 39.50999832, 0.00000000
1, 1.6800, 168, 0.01663969, -0.95042109, -0.34141436, -0.15730508, 0.29705262, 0.32313499, 13.97790337, -63.15597153, 43.51697159, 0.10084322, -0.28435275, -4.59543228, 0.99919271, -0.00077983, 0.00251473, 0.04008964, -0.02158792, 0.94865000, -0.65857184, 87.59600067, 1211.19250488, 39.50999832, 0.00000000
1, 1.6900, 169, 0.01612079, -0.95268494, -0.34534383, -0.20955864, 0.31578919, 0.20064066, 13.97790337, -63.15597153, 43.51697159, 0.09878745, -0.28514001, -4.59173346, 0.99919397, -0.00076171, 0.00252085, 0.04005742, -0.02109633, 0.95095450, -0.65464234, 87.59600067, 1211.19250488, 39.50999832, 0.00000000
1, 1.7000, 170, 0.01311320, -0.95144910, -0.34333712, -0.04516179, 0.38996470, -0.06197752, 13.31974411, -61.70465851, 42.98407745, 0.09838720, -0.28320578, -4.58828878, 0.99919522, -0.00075897, 0.00250382, 0.04002741, -0.01807181, 0.94972342, -0.65664905, 87.59600067, 1211.19250488, 39.50999832, 0.00000000
1, 1.7100, 171, 0.01411829, -0.94850910, -0.34324351, -0.11209788, -0.05571046, -0.12387745, 12.99066353, -61.52874374, 43.32665253, 0.12761457, -0.26937854, -4.64055061, 0.99917692, -0.00101756, 0.00239393, 0.04048261, -0.01899339, 0.94667387, -0.65674293, 87.59600067, 1211.19250488, 39.50999832, 0.00000000
1, 1.7200, 172, 0.01314831, -0.94477236, -0.34528881, -0.00015461, -0.34445763, -0.25333869, 13.42943573, -62.67220306, 43.49793625, 0.12756234, -0.26819614, -4.64465714, 0.99917555, -0.00101744, 0.00238363, 0.04051843, -0.01783441, 0.94254833, -0.65469772, 87.59600067, 1211.19250488, 39.50999832, 0.00000000
1, 1.7300, 173, 0.01371114, -0.94213825, -0.34357151, 0.09172343, -0.47983018, -0.32677910, 13.35630894, -63.90362167, 43.76438904, 0.12839988, -0.26679295, -4.65030098, 0.99917352, -0.00102512, 0.00237175, 0.04056764, -0.01837875, 0.93989730, -0.65641510, 87.59600067, 1211.19250488, 39.50999832, 0.00000000
1, 1.7400, 174, 0.01285282, -0.94389343, -0.34128582, -0.03348510, -0.51512063, -0.32713789, 13.35630894, -63.90362167, 43.76438904, 0.12798055, -0.26550993, -4.65625906, 0.99917144, -0.00102179, 0.00236046, 0.04061961, -0.01749245, 0.94165671, -0.65870094, 87.59600067, 1211.19250488, 39.50999832, 0.00000000
1, 1.7500, 175, 0.00986292, -0.94460636, -0.34138513, -0.15969615, -0.65561998, -0.18907909, 13.28317833, -62.40832901, 43.32665253, 0.12630376, -0.26600939, -4.66303730, 0.99916899, -0.00100686, 0.00236428, 0.04067874, -0.01450199, 0.94238782, -0.65860164, 87.59600067, 1211.19250488, 39.50999832, 0.00000000
1, 1.7600, 176, 0.00965572, -0.94619739, -0.34318337, -0.23351879, -0.64132231, -0.04792613, 13.28317833, -62.32036591, 43.63116455, 0.13278112, -0.27739745, -4.71757317, 0.99914920, -0.00105812, 0.00246638, 0.04115400, -0.01435882, 0.94397897, -0.65680301, 87.59600067, 1211.19250488, 39.50999832, 0.00000000
1, 1.7700, 177, 0.00872159, -0.94763935, -0.34348083, -0.23679516, -0.52383190, 0.11275878, 13.35630894, -62.23241043, 43.47890854, 0.13035218, -0.28026816, -4.72204828, 0.99914765, -0.00103581, 0.00249058, 0.04119304, -0.01359349, 0.94535631, -0.65650469, 87.59600067, 1211.19250488, 39.50999832, 0.00000000
1, 1.7800, 178, 0.00590103, -0.94873041, -0.34459639, -0.02080239, -0.50384462, 0.04220486, 13.72195435, -64.38739014, 43.91664886, 0.13008951, -0.28241080, -4.72663021, 0.99914593, -0.00103265, 0.00250921, 0.04123297, -0.01081102, 0.94646525, -0.65538907, 87.59600067, 1211.19250488, 39.50999832, 0.00000000
1, 1.7900, 179, 0.00975863, -0.94718140, -0.34254318, -0.02095359, -0.72940969, 0.19566782, 13.72195435, -64.38739014, 43.91664886, 0.12979738, -0.28677112, -4.73277998, 0.99914366, -0.00102840, 0.00254718, 0.04128656, -0.01473675, 0.94491112, -0.65744185, 87.59600067, 1211.19250488, 39.50999832, 0.00000000
1, 1.8000, 180, 0.01009470, -0.94586623, -0.34446847, 0.01412822, -0.64336443, 0.19736947, 13.42943573, -64.91514587, 43.45987701, 0.12986468, -0.29085299, -4.73813820, 0.99914157, -0.00102739, 0.00258284, 0.04133322, -0.01514259, 0.94360018, -0.65551615, 87.59600067, 1211.19250488, 39.50999832, 0.00000000
1, 1.8100, 181, 0.00914101, -0.94454694, -0.34394640, -0.14458849, -0.64147860, 0.00453343, 13.86821175, -63.28790665, 43.23149109, 0.13589303, -0.30031163, -4.79219818, 0.99912179, -0.00107528, 0.00266800, 0.04180434, -0.01427449, 0.94225824, -0.65603781, 87.59600067, 1211.19250488, 39.50999832, 0.00000000
1, 1.8200, 182, 0.01174103, -0.94365960, -0.34563464, -0.12362290, -0.75911474, -0.13863039, 13.50256634, -61.48476028, 43.49793625, 0.13456018, -0.30164608, -4.79976797, 0.99911898, -0.00106300, 0.00267921, 0.04187036, -0.01699724, 0.94130856, -0.65434873, 87.59600067, 1211.19250488, 39.50999832, 0.00000000
1, 1.8300, 183, 0.01007841, -0.94095963, -0.34437194, 0.18340147, -0.99686199, -0.14456819, 13.24661255, -62.40832901, 43.09827042, 0.13627642, -0.30374587, -4.80965662, 0.99911523, -0.00107696, 0.00269824, 0.04195651, -0.01536552, 0.93859917, -0.65561128, 87.59600067, 1211.19250488, 39.50999832, 0.00000000
1, 1.8400, 184, 0.01023940, -0.94037575, -0.34255067, 0.29390100, -0.99257928, -0.35575595, 13.75851536, -63.15597153, 43.45987701, 0.13907368, -0.30384260, -4.82025146, 0.99911135, -0.00110107, 0.00270021, 0.04204882, -0.01554629, 0.93796402, -0.65743232, 87.59600067, 1211.19250488, 39.50999832, 0.00000000
1, 1.8500, 185, 0.01240568, -0.93898880, -0.34147093, 0.11167007, -0.75470692, -0.29746246, 13.75851536, -63.15597153, 43.45987701, 0.14008917, -0.30366921, -4.82837439, 0.99910837, -0.00110979, 0.00269915, 0.04211962, -0.01770351, 0.93654603, -0.65851206, 87.59600067, 1211.19250488, 39.50999832, 0.00000000
1, 1.8600, 186, 0.00968550, -0.94170123, -0.34410465, 0.12831903, -0.72140694, -0.22650008, 14.41668034, -62.71617889, 43.59310150, 0.14551774, -0.30921200, -4.88460875, 0.99908739, -0.00115374, 0.00275004, 0.04260972, -0.01501707, 0.93922240, -0.65587807, 87.59600067, 1211.19250488, 39.50999832, 0.00000000
1, 1.8700, 187, 0.01104054, -0.94499850, -0.34448269, 0.19565903, -0.53531575, -0.02943238, 13.72195435, -62.32036591, 43.23149109, 0.14741173, -0.31078887, -4.88976383, 0.99908537, -0.00116954, 0.00276455, 0.04265460, -0.01645363, 0.94243979, -0.65549940, 87.59600067, 1211.19250488, 39.50999832, 0.00000000
1, 1.8800, 188, 0.00938409, -0.94593751, -0.34447676, 0.42736304, -0.37911189, -0.02685740, 13.35630894, -62.05649185, 43.19342804, 0.15163916, -0.31184676, -4.89349651, 0.99908394, -0.00120591, 0.00277538, 0.04268703, -0.01481363, 0.94332284, -0.65550512, 87.59600067, 1211.19250488, 39.50999832, 0.00000000
1, 1.8900, 189, 0.00601166, -0.94708508, -0.34246033, 0.51311952, -0.19230691, 0.13501233, 12.91753292, -61.70465851, 43.19342804, 0.15675661, -0.31377810, -4.89492226, 0.99908328, -0.00124977, 0.00279414, 0.04269930, -0.01147474, 0.94437879, -0.65752113, 87.59600067, 1211.19250488, 39.50999832, 0.00000000
1, 1.9000, 190, 0.00296389, -0.94725782, -0.34403330, 0.67544109, -0.29395741, 0.13237856, 12.91753292, -61.70465851, 43.19342804, 0.16349450, -0.31604192, -4.89733696, 0.99908227, -0.00130762, 0.00281642, 0.04272017, -0.00846503, 0.94445044, -0.65594769, 87.59600067, 1211.19250488, 39.50999832, 0.00000000
1, 1.9100, 191, 0.00472222, -0.94734102, -0.34684539, 0.42502424, -0.36453804, 0.13166095, 13.53913212, -62.58424377, 43.51697159, 0.17344813, -0.32796621, -4.94807053, 0.99906290, -0.00138866, 0.00292471, 0.04316208, -0.01030647, 0.94441861, -0.65313476, 87.59600067, 1211.19250488, 39.50999832, 0.00000000
1, 1.9200, 192, 0.00796105, -0.94796652, -0.34078386, 0.35309297, -0.50404233, 0.23441799, 13.64882374, -63.15597153, 43.70729446, 0.17692333, -0.33190429, -4.95205450, 0.99906129, -0.00141737, 0.00296040, 0.04319667, -0.01372948, 0.94489789, -0.65919483, 87.59600067, 1211.19250488, 39.50999832, 0.00000000
1, 1.9300, 193, 0.01069576, -0.95356357, -0.33900955, 0.12425026, -0.81290185, 0.12315501, 13.42943573, -63.63974380, 43.53600693, 0.17808188, -0.33587417, -4.95926809, 0.99905837, -0.00142579, 0.00299554, 0.04325947, -0.01652816, 0.95045435, -0.66096860, 87.59600067, 1211.19250488, 39.50999832, 0.00000000
1, 1.9400, 194, 0.01442463, -0.95596343, -0.33997062, -0.53517133, -1.31611073, 0.14975001, 13.02722931, -62.18843079, 43.40278244, 0.17258891, -0.34183010, -4.97100687, 0.99905390, -0.00137533, 0.00304553, 0.04336187, -0.02034713, 0.95290780, -0.66000718, 87.59600067, 1211.19250488, 39.50999832, 0.00000000
1, 1.9500, 195, 0.01848028, -0.95256788, -0.34279421, -0.98215699, -1.54347348, 0.19907261, 13.02722931, -62.18843079, 43.40278244, 0.16260746, -0.34903759, -4.98462391, 0.99904865, -0.00128522, 0.00310474, 0.04348075, -0.02452287, 0.94966698, -0.65718329, 87.59600067, 1211.19250488, 39.50999832, 0.00000000
1, 1.9600, 196, 0.01993996, -0.94693500, -0.34292248, -0.76324892, -1.76276541, 0.07074429, 13.57569790, -62.71617889, 43.19342804, 0.15848617, -0.34795395, -5.04891920, 0.99902415, -0.00124796, 0.00309443, 0.04404142, -0.02607219, 0.94416928, -0.65705484, 87.59600067, 1211.19250488, 39.50999832, 0.00000000
1, 1.9700, 197, 0.01903743, -0.94069278, -0.33934921, -0.69390422, -1.36625624, -0.00902330, 13.13692093, -62.01251602, 43.26955795, 0.15139942, -0.35259917, -5.06164885, 0.99901921, -0.00118404, 0.00313234, 0.04415253, -0.02516429, 0.93800402, -0.66062838, 87.59600067, 1211.19250488, 39.50999832, 0.00000000
1, 1.9800, 198, 0.01577860, -0.93720770, -0.34108287, -0.38954133, -1.06968856, -0.16192444, 13.42943573, -62.10047150, 43.02214050, 0.14737910, -0.35478312, -5.07217121, 0.99901521, -0.00114786, 0.00314994, 0.04424435, -0.02196044, 0.93461353, -0.65889460, 87.59600067, 1211.19250488, 39.50999832, 0.00000000
1, 1.9900, 199, 0.00957415, -0.93736511, -0.34269020, 0.09637871, -1.09847617, -0.26948634, 13.83164692, -62.93607712, 43.21246338, 0.14821745, -0.35605615, -5.08342218, 0.99901080, -0.00115437, 0.00316147, 0.04434240, -0.01578727, 0.93478614, -0.65728718, 87.59600067, 1211.19250488, 39.50999832, 0.00000000
1, 2.0000, 200, 0.00762818, -0.94037396, -0.34119460, 0.17077744, -1.33747911, -0.30989537, 13.83164692, -62.93607712, 43.21246338, 0.14976744, -0.35778028, -5.09706926, 0.99900544, -0.00116684, 0.00317724, 0.04446131, -0.01385896, 0.93776315, -0.65878260, 87.59600067, 1211.19250488, 39.50999832, 0.00000000
1, 2.0100, 201, 0.00571094, -0.94798344, -0.34182394, 0.01088611, -1.47568095, -0.32988992, 13.50256634, -63.02403641, 43.26955795, 0.15393077, -0.36518636, -5.15918732, 0.99898094, -0.00119850, 0.00324407, 0.04500264, -0.01199770, 0.94535381, -0.65815288, 87.59600067, 1211.19250488, 39.50999832, 0.00000000
1, 2.0200, 202, 0.00699289, -0.95196682, -0.34325382, -0.06052265, -1.75326705, -0.17730261, 13.39287472, -63.02403641, 42.83182144, 0.15312877, -0.36959052, -5.17623329, 0.99897408, -0.00118929, 0.00328233, 0.04515120, -0.01341425, 0.94929481, -0.65672195, 87.59600067, 1211.19250488, 39.50999832, 0.00000000
1, 2.0300, 203, 0.00729211, -0.95509845, -0.34351915, 0.01155374, -1.92566466, -0.09325603, 13.46600056, -62.23241043, 43.09827042, 0.15304196, -0.37538424, -5.19463110, 0.99896669, -0.00118571, 0.00333299, 0.04531151, -0.01380751, 0.95242417, -0.65645611, 87.59600067, 1211.19250488, 39.50999832, 0.00000000
1, 2.0400, 204, 0.00674294, -0.95184940, -0.34319419, -0.36764961, -1.58499074, -0.12009011, 13.42943573, -62.45230865, 43.36471558, 0.14919069, -0.37974420, -5.20984745, 0.99896061, -0.00114997, 0.00336963, 0.04544422, -0.01334431, 0.94921809, -0.65678060, 87.59600067, 1211.19250488, 39.50999832, 0.00000000
1, 2.0500, 205, 0.00540827, -0.94722199, -0.34403712, -0.44062576, -1.44833112, -0.11699371, 13.42943573, -62.45230865, 43.36471558, 0.14464206, -0.38366538, -5.22375870, 0.99895495, -0.00110835, 0.00340214, 0.04556558, -0.01207756, 0.94466543, -0.65593743, 87.59600067, 1211.19250488, 39.50999832, 0.00000000
1, 2.0600, 206, 0.00559783, -0.94614476, -0.34648880, -0.39037126, -1.14001882, -0.05793064, 13.79508114, -64.21147156, 43.11729813, 0.14022262, -0.39783642, -5.28065968, 0.99893183, -0.00106244, 0.00352445, 0.04606157, -0.01237612, 0.94367337, -0.65348518, 87.59600067, 1211.19250488, 39.50999832, 0.00000000
1, 2.0700, 207, 0.00571222, -0.94424117, -0.34527391, 0.12638412, -0.96641707, 0.06718606, 13.83164692, -63.63974380, 43.65019608, 0.14140061, -0.40181813, -5.28950787, 0.99892813, -0.00107083, 0.00355972, 0.04613861, -0.01269721, 0.94178259, -0.65469873, 87.59600067, 1211.19250488, 39.50999832, 0.00000000
1, 2.0800, 208, 0.00556154, -0.94086784, -0.34472832, 0.08950839, -0.58647203, -0.10049629, 14.45324135, -63.37586975, 43.30761719, 0.14223124, -0.40291032, -5.29537821, 0.99892575, -0.00107745, 0.00356963, 0.04618976, -0.01258840, 0.93838942, -0.65524387, 87.59600067, 1211.19250488, 39.50999832, 0.00000000
1, 2.0900, 209, 0.00682417, -0.94149309, -0.34647280, 0.08319297, -0.10848677, 0.05019855, 13.50256634, -63.11199188, 43.74535370, 0.14305241, -0.40375221, -5.29623127, 0.99892539, -0.00108424, 0.00357731, 0.04619715, -0.01386585, 0.93899393, -0.65349931, 87.59600067, 1211.19250488, 39.50999832, 0.00000000
1, 2.1000, 210, 0.00598746, -0.94226593, -0.34854898, -0.08265268, 0.35308540, 0.07798830, 13.50256634, -63.11199188, 43.74535370, 0.14227270, -0.40326211, -5.29264116, 0.99892688, -0.00107775, 0.00357269, 0.04616588, -0.01303058, 0.93978131, -0.65142316, 87.59600067, 1211.19250488, 39.50999832, 0.00000000
1, 2.1100, 211, 0.00504947, -0.94409174, -0.34768003, -0.09898911, 0.28547978, 0.00630374, 13.83164692, -62.76015854, 43.13633347, 0.14895572, -0.43541893, -5.33616781, 0.99890816, -0.00112159, 0.00385612, 0.04654470, -0.01222358, 0.94158435, -0.65229106, 87.59600067, 1211.19250488, 39.50999832, 0.00000000
1, 2.1200, 212, 0.00599965, -0.94535500, -0.34789407, -0.26238334, 0.31651333, 0.13050427, 12.99066353, -62.40832901, 43.00310516, 0.14636430, -0.43554580, -5.33270550, 0.99890965, -0.00109906, 0.00385614, 0.04651460, -0.01360055, 0.94277698, -0.65207362, 87.59600067, 1211.19250488, 39.50999832, 0.00000000
1, 2.1300, 213, 0.00540280, -0.94431341, -0.34878540, -0.30075780, 0.29592717, 0.32355022, 12.99066353, -62.76015854, 43.15536499, 0.14339422, -0.43755198, -5.32875490, 0.99891120, -0.00107249, 0.00387239, 0.04648024, -0.01302398, 0.94178700, -0.65118235, 87.59600067, 1211.19250488, 39.50999832, 0.00000000
1, 2.1400, 214, 0.00698572, -0.94427615, -0.34575257, -0.40792701, 0.08753044, 0.42496666, 13.31974411, -62.62821960, 43.47890854, 0.13932176, -0.44123527, -5.32639551, 0.99891198, -0.00103558, 0.00390282, 0.04645976, -0.01466317, 0.94182068, -0.65421498, 87.59600067, 1211.19250488, 39.50999832, 0.00000000
1, 2.1500, 215, 0.00723148, -0.94144630, -0.34714490, -0.56906867, 0.08655082, 0.40786090, 13.31974411, -63.81566238, 43.28859329, 0.13365620, -0.44476089, -5.32406664, 0.99891293, -0.00098484, 0.00393124, 0.04643961, -0.01496966, 0.93907487, -0.65282238, 87.59600067, 1211.19250488, 39.50999832, 0.00000000
1, 2.1600, 216, 0.00751500, -0.94020861, -0.35002518, -0.64336002, 0.15230675, 0.55009711, 13.31974411, -63.81566238, 43.28859329, 0.11922058, -0.45139411, -5.36670256, 0.99889547, -0.00085483, 0.00398353, 0.04681170, -0.01533366, 0.93798316, -0.64994180, 87.59600067, 1211.19250488, 39.50999832, 0.00000000
1, 2.1700, 217, 0.00730396, -0.93872130, -0.34980145, -0.37598678, 0.46459970, 0.46795300, 13.21005249, -62.18843079, 43.26955795, 0.11551495, -0.45417160, -5.36065388, 0.99889791, -0.00082161, 0.00400619, 0.04675907, -0.01521214, 0.93668294, -0.65016520, 87.59600067, 1211.19250488, 39.50999832, 0.00000000
1, 2.1800, 218, 0.00880247, -0.93958467, -0.34972972, -0.44795552, 0.46375042, 0.48573381, 12.95409870, -62.01251602, 43.23149109, 0.11108589, -0.45712012, -5.35454321, 0.99890035, -0.00078201, 0.00403004, 0.04670593, -0.01675821, 0.93761641, -0.65023667, 87.59600067, 1211.19250488, 39.50999832, 0.00000000
1, 2.1900, 219, 0.00604452, -0.93916202, -0.35009530, -0.55436981, 0.60299391, 0.31320366, 13.79508114, -61.35282516, 43.45987701, 0.10561953, -0.45796958, -5.34770775, 0.99890304, -0.00073425, 0.00403517, 0.04664653, -0.01403049, 0.93728161, -0.64987111, 87.59600067, 1211.19250488, 39.50999832, 0.00000000
1, 2.2000, 220, 0.00649018, -0.93840533, -0.34931576, -0.53661066, 0.56825602, 0.34757563, 13.10035515, -62.27638626, 43.66922760, 0.10032508, -0.45925748, -5.34108019, 0.99890572, -0.00068781, 0.00404420, 0.04658893, -0.01449433, 0.93662059, -0.65065056, 87.59600067, 1211.19250488, 39.50999832, 0.00000000
1, 2.2100, 221, 0.00797692, -0.93973511, -0.35063210, -0.42509851, 0.19231223, 0.30417401, 13.10035515, -62.27638626, 43.66922760, 0.08378409, -0.46448836, -5.38512087, 0.99888772, -0.00053992, 0.00408328, 0.04697338, -0.01602174, 0.93808085, -0.64933419, 87.59600067, 1211.19250488, 39.50999832, 0.00000000
1, 2.2200, 222, 0.00827833, -0.94298822, -0.35092905, -0.35133594, -0.27282885, 0.45237407, 13.24661255, -62.49628448, 43.07923508, 0.08025791, -0.46967706, -5.38604832, 0.99888712, -0.00050703, 0.00412707, 0.04698154, -0.01643641, 0.94157064, -0.64903665, 87.59600067, 1211.19250488, 39.50999832, 0.00000000
1, 2.2300, 223, 0.01081422, -0.94889522, -0.34703612, -0.31400773, -0.75626367, 0.65303606, 13.39287472, -61.92455292, 43.04117203, 0.07707304, -0.47842851, -5.39081430, 0.99888486, -0.00047550, 0.00420207, 0.04702314, -0.01910381, 0.94752842, -0.65292859, 87.59600067, 1211.19250488, 39.50999832, 0.00000000
1, 2.2400, 224, 0.00800034, -0.95425195, -0.34830523, -0.58358496, -0.88044918, 0.77429825, 13.21005249, -61.08895111, 42.83182144, 0.07118291, -0.48874867, -5.39628506, 0.99888229, -0.00041972, 0.00428963, 0.04707097, -0.01646316, 0.95296276, -0.65165812, 87.59600067, 1211.19250488, 39.50999832, 0.00000000
1, 2.2500, 225, 0.00196302, -0.95533007, -0.35330185, -0.96023417, -0.90084291, 0.79260021, 13.75851536, -62.36434555, 43.55503845, 0.06153504, -0.49930969, -5.40180779, 0.99887967, -0.00033107, 0.00437775, 0.04711941, -0.01060761, 0.95418441, -0.64666009, 87.59600067, 1211.19250488, 39.50999832, 0.00000000
1, 2.2600, 226, -0.00393841, -0.95521748, -0.35828847, -1.04319942, -1.20571148, 0.50519168, 13.75851536, -62.36434555, 43.55503845, 0.04482063, -0.52095938, -5.45748091, 0.99885583, -0.00017425, 0.00455968, 0.04760522, -0.00492913, 0.95429051, -0.64167178, 87.59600067, 1211.19250488, 39.50999832, 0.00000000
1, 2.2700, 227, -0.00465187, -0.94695735, -0.35885242, -0.65926468, -1.66215670, 0.26590264, 14.12416077, -63.85964203, 43.13633347, 0.03809694, -0.52923739, -5.47201633, 0.99884951, -0.00011162, 0.00462905, 0.04773214, -0.00452878, 0.94624996, -0.64110518, 87.59600067, 1211.19250488, 39.50999832, 0.00000000
1, 2.2800, 228, -0.00007671, -0.93494219, -0.35868552, -0.48866630, -2.43018627, 0.09102903, 13.21005249, -62.98005676, 43.17439651, 0.03301773, -0.53854573, -5.49439955, 0.99883974, -0.00006255, 0.00470809, 0.04792741, -0.00926255, 0.93432993, -0.64127064, 87.59600067, 1211.19250488, 39.50999832, 0.00000000
1, 2.2900, 229, 0.00496278, -0.93257970, -0.35882890, -0.48646244, -2.61829376, 0.05191093, 13.31974411, -63.02403641, 43.34568787, 0.02795129, -0.54814571, -5.51866817, 0.99882925, -0.00001336, 0.00478965, 0.04813913, -0.01447196, 0.93206382, -0.64112574, 87.59600067, 1211.19250488, 39.50999832, 0.00000000
1, 2.3000, 230, 0.01055431, -0.93115991, -0.35663465, -0.21214889, -2.85259700, -0.18237236, 12.95409870, -62.49628448, 43.04117203, 0.02561045, -0.55637240, -5.54600382, 0.99881738, 0.00001166, 0.00486037, 0.04837745, -0.02021469, 0.93069768, -0.64331853, 87.59600067, 1211.19250488, 39.50999832, 0.00000000
1, 2.3100, 231, 0.01389105, -0.93426371, -0.35385129, -0.38956177, -2.71305656, -0.40741390, 12.95409870, -62.49628448, 43.04117203, 0.01219875, -0.55585724, -5.61922836, 0.99878627, 0.00013145, 0.00485014, 0.04901627, -0.02363515, 0.93390530, -0.64610118, 87.59600067, 1211.19250488, 39.50999832, 0.00000000
1, 2.3200, 232, 0.01114640, -0.93960077, -0.35238108, -0.39055312, -2.52351689, -0.45616087, 13.64882374, -61.88057327, 42.92698288, 0.00811351, -0.56038165, -5.64439678, 0.99877530, 0.00017006, 0.00488779, 0.04923579, -0.02090066, 0.93943554, -0.64757133, 87.59600067, 1211.19250488, 39.50999832, 0.00000000
1, 2.3300, 233, 0.00325559, -0.94345766, -0.34898734, -0.10641207, -2.05642104, -0.55268008, 13.42943573, -63.55178452, 43.25052261, 0.00687849, -0.56237042, -5.66558361, 0.99876601, 0.00018259, 0.00490456, 0.04942050, -0.01306058, 0.94333184, -0.65096462, 87.59600067, 1211.19250488, 39.50999832, 0.00000000
1, 2.3400, 234, -0.00313146, -0.94640541, -0.34578601, 0.28424612, -1.65909922, -0.52794385, 13.64882374, -62.93607712, 42.92698288, 0.00958919, -0.56320530, -5.68302250, 0.99875849, 0.00016007, 0.00491298, 0.04957238, -0.00669077, 0.94625413, -0.65416574, 87.59600067, 1211.19250488, 39.50999832, 0.00000000
1, 2.3500, 235, -0.00821738, -0.94478011, -0.35121441, 0.42589864, -1.72945035, -0.35407332, 13.83164692, -63.90362167, 43.26955795, 0.01368925, -0.56591368, -5.70054340, 0.99875081, 0.00012626, 0.00493834, 0.04972490, -0.00164351, 0.94456881, -0.64873701, 87.59600067, 1211.19250488, 39.50999832, 0.00000000
1, 2.3600, 236, -0.00953933, -0.94506598, -0.35172316, 0.46060288, -1.81722510, -0.21539842, 13.83164692, -63.90362167, 43.26955795, 0.01394892, -0.58645213, -5.76351213, 0.99872237, 0.00013572, 0.00511738, 0.05027363, -0.00044993, 0.94480133, -0.64822686, 87.59600067, 1211.19250488, 39.50999832, 0.00000000
1, 2.3700, 237, -0.01089064, -0.94717461, -0.35267609, 0.35145602, -1.88925922, -0.05837408, 13.02722931, -62.54026413, 42.83182144, 0.01733757, -0.59248990, -5.78148317, 0.99871421, 0.00010965, 0.00517148, 0.05043008, 0.00059287, 0.94688642, -0.64727080, 87.59600067, 1211.19250488, 39.50999832, 0.00000000
1, 2.3800, 238, -0.01105606, -0.94572198, -0.35411361, 0.24318779, -1.73486888, -0.10753187, 13.28317833, -62.05649185, 42.83182144, 0.01963545, -0.59752166, -5.79816341, 0.99870664, 0.00009259, 0.00521633, 0.05057534, 0.00065779, 0.94539195, -0.64583224, 87.59600067, 1211.19250488, 39.50999832, 0.00000000
1, 2.3900, 239, -0.00876491, -0.94298643, -0.35929963, 0.11712299, -1.40708554, -0.27603796, 13.02722931, -64.03556061, 43.42181396, 0.02070345, -0.59983611, -5.81233406, 0.99870026, 0.00008496, 0.00523696, 0.05069878, -0.00169047, 0.94263405, -0.64064562, 87.59600067, 1211.19250488, 39.50999832, 0.00000000
1, 2.4000, 240, -0.00514619, -0.93830776, -0.35679582, 0.00558942, -0.84045529, -0.35167554, 12.91753292, -64.56330872, 43.13633347, 0.02069750, -0.59947324, -5.82144117, 0.99869621, 0.00008526, 0.00523379, 0.05077815, -0.00532666, 0.93795162, -0.64314926, 87.59600067, 1211.19250488, 39.50999832, 0.00000000
1, 2.4100, 241, -0.00326631, -0.93920445, -0.35419720, -0.05165910, -0.51554781, -0.30951294, 12.91753292, -64.56330872, 43.13633347, 0.00703812, -0.62476331, -5.87093401, 0.99867308, 0.00021787, 0.00544805, 0.05121005, -0.00730131, 0.93890333, -0.64574695, 87.59600067, 1211.19250488, 39.50999832, 0.00000000
1, 2.4200, 242, -0.00157351, -0.94501746, -0.35323578, -0.28614336, -0.25893885, -0.37371385, 12.95409870, -64.65126801, 43.19342804, 0.00415443, -0.62216455, -5.87461758, 0.99867147, 0.00024201, 0.00542411, 0.05124228, -0.00929904, 0.94492334, -0.64670515, 87.59600067, 1211.19250488, 39.50999832, 0.00000000
1, 2.4300, 243, 0.00147702, -0.94739157, -0.35454252, -0.37466994, -0.51836675, -0.29100552, 13.21005249, -64.21147156, 42.81278610, 0.00037255, -0.62124479, -5.88042021, 0.99866903, 0.00027484, 0.00541439, 0.05129304, -0.01232380, 0.94735861, -0.64539862, 87.59600067, 1211.19250488, 39.50999832, 0.00000000
1, 2.4400, 244, 0.00271020, -0.94524270, -0.35432905, -0.71994495, -0.42242125, -0.02425729, 12.91753292, -62.32036591, 42.75569153, -0.00684309, -0.62249142, -5.88433790, 0.99866712, 0.00033846, 0.00542201, 0.05132753, -0.01356541, 0.94531929, -0.64561212, 87.59600067, 1211.19250488, 39.50999832, 0.00000000
1, 2.4500, 245, 0.00243458, -0.94146538, -0.35439727, -0.21510710, -0.39789072, -0.23622598, 13.72195435, -64.07953644, 43.17439651, -0.00902267, -0.62166482, -5.88885689, 0.99866515, 0.00035730, 0.00541381, 0.05136701, -0.01329023, 0.94161290, -0.64554381, 87.59600067, 1211.19250488, 39.50999832, 0.00000000
1, 2.4600, 246, 0.00066570, -0.93379205, -0.35350007, 0.05207765, -0.17250785, -0.24988344, 13.28317833, -62.76015854, 42.73666000, -0.03568003, -0.65096438, -5.93479204, 0.99864298, 0.00060502, 0.00565697, 0.05176860, -0.01163776, 0.93406332, -0.64643967, 87.59600067, 1211.19250488, 39.50999832, 0.00000000
1, 2.4700, 247, -0.00414959, -0.92801511, -0.35114205, 0.26732147, 0.03730604, -0.38675746, 13.28317833, -62.76015854, 42.73666000, -0.03300193, -0.64721030, -5.93583679, 0.99864262, 0.00058004, 0.00562546, 0.05177756, -0.00717129, 0.92860776, -0.64879370, 87.59600067, 1211.19250488, 39.50999832, 0.00000000
1, 2.4800, 248, -0.00641902, -0.92653048, -0.35269463, 0.30481717, -0.16853240, -0.37362137, 12.84440613, -61.70465851, 43.04117203, -0.02998510, -0.64429295, -5.93877745, 0.99864149, 0.00055257, 0.00560138, 0.05180304, -0.00484169, 0.92707586, -0.64724183, 87.59600067, 1211.19250488, 39.50999832, 0.00000000
1, 2.4900, 249, -0.00680239, -0.92958146, -0.35290530, 0.35999694, -0.13179898, -0.49606606, 13.24661255, -61.52874374, 43.17439651, -0.02640748, -0.64010584, -5.94181061, 0.99864030, 0.00051965, 0.00556650, 0.05182930, -0.00439078, 0.93006217, -0.64703190, 87.59600067, 1211.19250488, 39.50999832, 0.00000000
1, 2.5000, 250, -0.00654395, -0.93357950, -0.35040814, 0.37630087, -0.16825619, -0.35625601, 14.16072655, -62.45230865, 43.19342804, -0.02264361, -0.63735449, -5.94469643, 0.99863917, 0.00048574, 0.00554421, 0.05185428, -0.00459741, 0.93400002, -0.64952970, 87.59600067, 1211.19250488, 39.50999832, 0.00000000
1, 2.5100, 251, -0.00646899, -0.93899339, -0.34918460, 0.05457248, -0.20423448, -0.40876284, 13.31974411, -63.68372726, 42.98407745, -0.02216387, -0.68409985, -5.99355030, 0.99861461, 0.00050525, 0.00595158, 0.05227995, -0.00483532, 0.93937850, -0.65075135, 87.59600067, 1211.19250488, 39.50999832, 0.00000000
1, 2.5200, 252, -0.00547325, -0.94255608, -0.35049155, -0.00531115, 0.22158384, -0.24142258, 13.31974411, -63.68372726, 42.98407745, -0.02221435, -0.68106282, -5.99231815, 0.99861532, 0.00050424, 0.00592510, 0.05226922, -0.00643723, 0.94293839, -0.64943743, 87.59600067, 1211.19250488, 39.50999832, 0.00000000
1, 2.5300, 253, -0.00796005, -0.94453347, -0.34917909, 0.11786614, 0.47986025, -0.23636954, 13.53913212, -63.46382904, 43.09827042, -0.02100914, -0.67717242, -5.98866844, 0.99861729, 0.00049178, 0.00589176, 0.05223736, -0.00388056, 0.94491100, -0.65075070, 87.59600067, 1211.19250488, 39.50999832, 0.00000000
1, 2.5400, 254, -0.00832918, -0.94815397, -0.35000905, 0.14984410, 0.71827453, -0.10840687, 13.42943573, -62.36434555, 42.90795135, -0.01946583, -0.67364961, -5.98234034, 0.99862033, 0.00047640, 0.00586179, 0.05218214, -0.00345542, 0.94850850, -0.64992142, 87.59600067, 1211.19250488, 39.50999832, 0.00000000
1, 2.5500, 255, -0.00785791, -0.94772559, -0.35163158, 0.22110140, 0.77029562, -0.10753123, 13.57569790, -61.83659363, 42.85084915, -0.01721670, -0.66995436, -5.97554016, 0.99862367, 0.00045477, 0.00583064, 0.05212277, -0.00385859, 0.94804311, -0.64829975, 87.59600067, 1211.19250488, 39.50999832, 0.00000000
1, 2.5600, 256, -0.00730941, -0.94867980, -0.35249394, 0.28738001, 1.18051910, 0.02393860, 13.24661255, -61.22089005, 42.81278610, -0.01961144, -0.68250507, -6.01131296, 0.99860662, 0.00048320, 0.00593878, 0.05243462, -0.00441493, 0.94896686, -0.64743727, 87.59600067, 1211.19250488, 39.50999832, 0.00000000
1, 2.5700, 257, -0.00417790, -0.94503421, -0.35264897, 0.30574298, 1.26785636, -0.06217297, 13.24661255, -61.22089005, 42.81278610, -0.01648452, -0.67749661, -5.99969959, 0.99861223, 0.00045306, 0.00589661, 0.05233326, -0.00768035, 0.94534123, -0.64728063, 87.59600067, 1211.19250488, 39.50999832, 0.00000000
1, 2.5800, 258, -0.00049128, -0.94169772, -0.35200021, 0.14071603, 1.50500965, 0.04878771, 13.86821175, -63.06801224, 43.11729813, -0.01500378, -0.67269868, -5.98545456, 0.99861896, 0.00043724, 0.00585553, 0.05220905, -0.01128206, 0.94196451, -0.64793050, 87.59600067, 1211.19250488, 39.50999832, 0.00000000
1, 2.5900, 259, 0.00245553, -0.93940741, -0.35339770, 0.08155976, 1.93168771, 0.16340892, 13.94133854, -62.67220306, 43.13633347, -0.01407395, -0.66749036, -5.96679449, 0.99862766, 0.00042582, 0.00581063, 0.05204639, -0.01414114, 0.93966341, -0.64653397, 87.59600067, 1211.19250488, 39.50999832, 0.00000000
1, 2.6000, 260, 0.00193991, -0.93637276, -0.35298160, 0.14819959, 2.46369982, 0.19196820, 13.57569790, -62.71617889, 43.11729813, -0.01244652, -0.66069418, -5.94305754, 0.99863881, 0.00040736, 0.00575223, 0.05183946, -0.01351632, 0.93660331, -0.64695132, 87.59600067, 1211.19250488, 39.50999832, 0.00000000
1, 2.6100, 261, -0.00045929, -0.93792403, -0.35548040, 0.23525491, 2.66937685, 0.24876089, 13.10035515, -62.45230865, 42.58440399, -0.02081627, -0.65853041, -5.96321630, 0.99862981, 0.00048033, 0.00572950, 0.05201557, -0.01101856, 0.93816292, -0.64445370, 87.59600067, 1211.19250488, 39.50999832, 0.00000000
1, 2.6200, 262, 0.00050472, -0.93623263, -0.35551926, 0.40120307, 2.27727556, 0.16969639, 13.10035515, -62.45230865, 42.58440399, -0.01667759, -0.65217394, -5.94134665, 0.99864006, 0.00044029, 0.00567607, 0.05182478, -0.01192633, 0.93655509, -0.64441544, 87.59600067, 1211.19250488, 39.50999832, 0.00000000
1, 2.6300, 263, 0.00298030, -0.93836629, -0.35516909, 0.65503627, 2.16118169, 0.04343081, 13.72195435, -61.57272339, 42.73666000, -0.00999767, -0.64503831, -5.92106676, 0.99864960, 0.00037785, 0.00561697, 0.05164772, -0.01428304, 0.93859261, -0.64476705, 87.59600067, 1211.19250488, 39.50999832, 0.00000000
1, 2.6400, 264, 0.00527688, -0.94231057, -0.35224926, 0.85611480, 2.01121998, -0.13612029, 13.28317833, -63.81566238, 43.23149109, -0.00130591, -0.63675064, -5.90284204, 0.99865818, 0.00029749, 0.00554871, 0.05148849, -0.01644260, 0.94239026, -0.64768839, 87.59600067, 1211.19250488, 39.50999832, 0.00000000
1, 2.6500, 265, 0.00630889, -0.94305968, -0.35212028, 0.87744683, 1.77265406, -0.22909264, 12.88097191, -63.99157715, 43.34568787, 0.00755855, -0.62842631, -5.88718462, 0.99866557, 0.00021575, 0.00548018, 0.05135163, -0.01733235, 0.94298923, -0.64781892, 87.59600067, 1211.19250488, 39.50999832, 0.00000000
1, 2.6600, 266, 0.01029961, -0.94526714, -0.35147715, 1.23842204, 1.51817632, -0.23554726, 13.75851536, -63.63974380, 42.66053009, 0.01602868, -0.61682361, -5.91938162, 0.99865174, 0.00013824, 0.00538282, 0.05163187, -0.02116850, 0.94502008, -0.64846373, 87.59600067, 1211.19250488, 39.50999832, 0.00000000
1, 2.6700, 267, 0.00567878, -0.94765067, -0.34957555, 1.25638604, 1.62237990, -0.30372474, 13.75851536, -63.63974380, 42.66053009, 0.02869438, -0.60832530, -5.90545893, 0.99865842, 0.00002339, 0.00531446, 0.05150998, -0.01634806, 0.94723117, -0.65036750, 87.59600067, 1211.19250488, 39.50999832, 0.00000000
1, 2.6800, 268, 0.00438354, -0.94722223, -0.35090968, 1.11515355, 1.48517823, -0.37649027, 13.75851536, -61.96853638, 42.47021484, 0.03993047, -0.59962499, -5.89304209, 0.99866438, -0.00007901, 0.00524368, 0.05140129, -0.01490718, 0.94660038, -0.64903480, 87.59600067, 1211.19250488, 39.50999832, 0.00000000
1, 2.6900, 269, 0.00414653, -0.94585150, -0.35105628, 1.08086920, 1.36540067, -0.41406024, 13.50256634, -61.52874374, 42.86988068, 0.05083008, -0.59098911, -5.88187313, 0.99866974, -0.00017838, 0.00517329, 0.05130351, -0.01451884, 0.94503272, -0.64888960, 87.59600067, 1211.19250488, 39.50999832, 0.00000000
1, 2.7000, 270, 0.00807922, -0.94084585, -0.34968516, 0.81560832, 1.09027898, -0.50692409, 13.46600056, -63.02403641, 43.02214050, 0.05904958, -0.58244622, -5.87356091, 0.99867380, -0.00025421, 0.00510250, 0.05123075, -0.01830051, 0.93986398, -0.65026212, 87.59600067, 1211.19250488, 39.50999832, 0.00000000
1, 2.7100, 271, 0.00614608, -0.93680704, -0.34456974, 0.43611404, 1.27457213, -0.41399685, 13.17348671, -64.21147156, 42.47021484, 0.06388993, -0.58116251, -5.90963507, 0.99865770, -0.00029536, 0.00509357, 0.05154493, -0.01625007, 0.93572056, -0.65537858, 87.59600067, 1211.19250488, 39.50999832, 0.00000000
1, 2.7200, 272, 0.00305630, -0.93869108, -0.33803254, 0.09265519, 1.49402547, -0.35559726, 13.17348671, -64.21147156, 42.47021484, 0.06491992, -0.57263511, -5.89687204, 0.99866372, -0.00030874, 0.00501969, 0.05143370, -0.01311013, 0.93756199, -0.66191632, 87.59600067, 1211.19250488, 39.50999832, 0.00000000
1, 2.7300, 273, 0.00455127, -0.93704039, -0.33492753, -0.44480172, 1.24766028, -0.23608410, 13.57569790, -63.11199188, 42.62246704, 0.06056248, -0.56608391, -5.88592625, 0.99866903, -0.00027418, 0.00496061, 0.05133856, -0.01446872, 0.93594438, -0.66502267, 87.59600067, 1211.19250488, 39.50999832, 0.00000000
1, 2.7400, 274, 0.02826305, -0.93471724, -0.33259040, -1.58425939, 0.20805731, -0.16656236, 13.17348671, -63.15597153, 43.17439651, 0.04473377, -0.56379795, -5.88427925, 0.99866986, -0.00013732, 0.00493360, 0.05132490, -0.03811393, 0.93381149, -0.66736072, 87.59600067, 1211.19250488, 39.50999832, 0.00000000
1, 2.7500, 275, 0.04216081, -0.93472868, -0.33643860, -2.94786620, 0.71653312, -0.43295279, 13.39287472, -61.44078064, 43.06019974, 0.01529801, -0.55724937, -5.87855768, 0.99867272, 0.00011603, 0.00486335, 0.05127633, -0.05194549, 0.93424684, -0.66351342, 87.59600067, 1211.19250488, 39.50999832, 0.00000000
1, 2.7600, 276, 0.03699831, -0.94430327, -0.34120965, -4.62331438, 2.34127283, -0.90343887, 13.42943573, -61.96853638, 42.56536865, -0.03350108, -0.53166944, -5.90316534, 0.99866253, 0.00053087, 0.00461846, 0.05149283, -0.04652313, 0.94453120, -0.65874493, 87.59600067, 1211.19250488, 39.50999832, 0.00000000
1, 2.7700, 277, 0.02597131, -0.95695490, -0.34575915, -5.70588779, 4.49211550, -1.78655779, 14.34354877, -62.45230865, 43.13633347, -0.09024699, -0.49921811, -5.86631775, 0.99868000, 0.00100944, 0.00431048, 0.05117384, -0.03491700, 0.95814228, -0.65420008, 87.59600067, 1211.19250488, 39.50999832, 0.00000000
1, 2.7800, 278, 0.00663373, -0.97361106, -0.35550493, -7.23173380, 6.14258337, -2.71399713, 14.34354877, -62.45230865, 43.13633347, -0.16210534, -0.45225355, -5.81704664, 0.99870276, 0.00161306, 0.00386978, 0.05074662, -0.01485087, 0.97593689, -0.64445853, 87.59600067, 1211.19250488, 39.50999832, 0.00000000
1, 2.7900, 279, 0.00745936, -0.98465103, -0.37025160, -9.70077324, 6.45910072, -3.31502819, 13.72195435, -61.66067886, 42.86988068, -0.25861025, -0.39847904, -5.76655912, 0.99872518, 0.00242884, 0.00335945, 0.05030888, -0.01477102, 0.98849976, -0.62971413, 87.59600067, 1211.19250488, 39.50999832, 0.00000000
1, 2.8000, 280, 0.02074475, -0.99642694, -0.37489846, -11.52090836, 7.49178410, -3.32290530, 13.61225796, -62.27638626, 42.69859695, -0.37315995, -0.34087616, -5.70622396, 0.99875033, 0.00340044, 0.00280891, 0.04978480, -0.02707874, 1.00215721, -0.62506479, 87.59600067, 1211.19250488, 39.50999832, 0.00000000
1, 2.8100, 281, 0.01329622, -0.98382109, -0.38488919, -13.55060768, 9.44458199, -3.02954292, 13.46600056, -62.10047150, 42.73666000, -0.51328135, -0.27867860, -5.66353846, 0.99876541, 0.00459387, 0.00220764, 0.04941380, -0.01857747, 0.99179530, -0.61506474, 87.59600067, 1211.19250488, 39.50999832, 0.00000000
1, 2.8200, 282, -0.01613523, -0.95861137, -0.37709171, -13.93967152, 8.97979736, -3.12601519, 13.50256634, -61.35282516, 42.77472687, -0.65168238, -0.21730386, -5.58845091, 0.99879259, 0.00577264, 0.00161681, 0.04875898, 0.01194432, 0.96909273, -0.62284434, 87.59600067, 1211.19250488, 39.50999832, 0.00000000
1, 2.8300, 283, -0.01664380, -0.91886514, -0.36915094, -12.34365654, 4.33980989, -4.05462980, 13.50256634, -61.35282516, 42.77472687, -0.77473330, -0.16382644, -5.56040716, 0.99879873, 0.00682215, 0.00110001, 0.04851315, 0.01345411, 0.93160975, -0.63076258, 87.59600067, 1211.19250488, 39.50999832, 0.00000000
1, 2.8400, 284, 0.03545899, -0.88637888, -0.33674976, -10.52077961, -1.44629240, -5.09592485, 13.42943573, -63.11199188, 42.94601059, -0.88040721, -0.12154854, -5.59048223, 0.99877977, 0.00772550, 0.00068475, 0.04877347, -0.03784850, 0.90107197, -0.66313928, 87.59600067, 1211.19250488, 39.50999832, 0.00000000
1, 2.8500, 285, 0.10034297, -0.86879039, -0.29486984, -8.92121410, -4.26536655, -6.14447165, 13.97790337, -61.79261780, 43.13633347, -0.97058707, -0.07981421, -5.65098476, 0.99874800, 0.00849390, 0.00027812, 0.04929826, -0.10200550, 0.88516843, -0.70499450, 87.59600067, 1211.19250488, 39.50999832, 0.00000000
1, 2.8600, 286, 0.14063212, -0.86796618, -0.26664001, -7.09054995, -5.99644184, -6.45014143, 13.72195435, -61.83659363, 42.96504593, -1.03573275, -0.02156732, -5.77066469, 0.99869144, 0.00903636, -0.00026700, 0.05033690, -0.14151654, 0.88567823, -0.73320270, 87.59600067, 1211.19250488, 39.50999832, 0.00000000
1, 2.8700, 287, 0.12871949, -0.88971084, -0.25572628, -5.97238255, -5.87983036, -5.69524431, 14.45324135, -63.41984940, 42.77472687, -1.09675062, 0.00992432, -5.84516907, 0.99865365, 0.00955394, -0.00057447, 0.05098343, -0.12873824, 0.90846890, -0.74409771, 87.59600067, 1211.19250488, 39.50999832, 0.00000000
1, 2.8800, 288, 0.10755193, -0.91943216, -0.24441703, -5.00791073, -6.50090933, -5.02569866, 14.45324135, -63.41984940, 42.77472687, -1.14823914, 0.03283187, -5.92318678, 0.99861443, 0.00999192, -0.00080382, 0.05166107, -0.10712259, 0.93914497, -0.75538856, 87.59600067, 1211.19250488, 39.50999832, 0.00000000
1, 2.8900, 289, 0.10564236, -0.96213186, -0.23911338, -4.16424513, -7.32174253, -5.85413933, 13.72195435, -61.00099564, 42.58440399, -1.19151819, 0.06036071, -6.01205826, 0.99857020, 0.01035584, -0.00107126, 0.05243271, -0.10478379, 0.98264897, -0.76067567, 87.59800720, 1211.00463867, 39.57999802, 0.00000000
1, 2.9000, 290, 0.10455325, -1.01688075, -0.24244079, -5.19530821, -6.29639673, -7.14780140, 13.31974411, -60.25334549, 42.29892349, -1.24505651, 0.10362346, -6.09600019, 0.99852657, 0.01080150, -0.00148067, 0.05315956, -0.10304869, 1.03822756, -0.75733018, 87.59800720, 1211.00463867, 39.57999802, 0.00000000
1, 2.9100, 291, 0.08102783, -1.06757641, -0.25706083, -8.63071728, -2.85454178, -7.29344654, 14.05103493, -62.05649185, 42.71763229, -1.32063973, 0.16676095, -6.18903112, 0.99847543, 0.01142913, -0.00207517, 0.05396283, -0.07858498, 1.09014750, -0.74268126, 87.59800720, 1211.00463867, 39.57999802, 0.00000000
1, 2.9200, 292, 0.03706724, -1.09980428, -0.28663284, -12.75010014, 0.11081864, -6.95482397, 14.38011456, -61.17690277, 42.96504593, -1.44860911, 0.23181072, -6.21156931, 0.99845076, 0.01251297, -0.00270469, 0.05414963, -0.03344700, 1.12419844, -0.71306276, 87.59800720, 1211.00463867, 39.57999802, 0.00000000
1, 2.9300, 293, 0.00024896, -1.10441113, -0.31931335, -16.56211662, 0.53666770, -6.47717094, 14.38011456, -61.17690277, 42.96504593, -1.61458325, 0.29397598, -6.22785664, 0.99842310, 0.01392923, -0.00332674, 0.05427987, 0.00448608, 1.13144886, -0.68030941, 87.59800720, 1211.00463867, 39.57999802, 0.00000000
1, 2.9400, 294, -0.01865633, -1.08223999, -0.33179134, -19.68399429, -0.28744146, -5.83454704, 14.34354877, -60.20936584, 42.73666000, -1.81193471, 0.34704986, -6.24900675, 0.99838674, 0.01562282, -0.00388551, 0.05445095, 0.02437949, 1.11254382, -0.66773248, 87.59800720, 1211.00463867, 39.57999802, 0.00000000
1, 2.9500, 295, -0.00591402, -1.04343390, -0.33725071, -21.42568207, -2.57503676, -4.22495031, 13.61225796, -59.76956940, 42.12763596, -2.02705860, 0.37647694, -6.28508759, 0.99833786, 0.01748173, -0.00424960, 0.05475333, 0.01231346, 1.07739103, -0.66215152, 87.59800720, 1211.00463867, 39.57999802, 0.00000000
1, 2.9600, 296, 0.02462246, -0.98434675, -0.34015504, -23.17267799, -4.52215576, -2.44997525, 13.94133854, -59.72559738, 42.24182510, -2.25847650, 0.38449416, -6.37012768, 0.99825948, 0.01949070, -0.00444448, 0.05548409, -0.01794836, 1.02223170, -0.65910417, 87.59800720, 1211.00463867, 39.57999802, 0.00000000
1, 2.9700, 297, 0.06075530, -0.93786776, -0.34453472, -23.67355919, -5.56862879, -0.58956432, 14.12416077, -61.08895111, 42.01344299, -2.49646139, 0.36854598, -6.41955853, 0.99819314, 0.02156969, -0.00443008, 0.05590838, -0.05419136, 0.97986966, -0.65456057, 87.59800720, 1211.00463867, 39.57999802, 0.00000000
1, 2.9800, 298, 0.09220930, -0.89362085, -0.33319727, -23.12358856, -5.31489897, 0.96097821, 14.12416077, -61.08895111, 42.01344299, -2.72872639, 0.33910316, -6.46063232, 0.99812764, 0.02360573, -0.00429539, 0.05626320, -0.08608616, 0.93972439, -0.66571999, 87.59800720, 1211.00463867, 39.57999802, 0.00000000
1, 2.9900, 299, 0.09715359, -0.86390215, -0.31828445, -21.47978783, -4.51512051, 2.16808748, 14.41668034, -60.47323990, 42.07053757, -2.94425201, 0.30155912, -6.48977375, 0.99806762, 0.02550043, -0.00408069, 0.05651730, -0.09163768, 0.91388237, -0.68044996, 87.59800720, 1211.00463867, 39.57999802, 0.00000000
1, 3.0000, 300, 0.08498008, -0.85633409, -0.31648627, -18.99129486, -3.03031492, 2.80693030, 14.19729233, -60.91303253, 41.38538742, -3.13454413, 0.26393160, -6.50305605, 0.99801755, 0.02717594, -0.00384997, 0.05663513, -0.08012858, 0.90981185, -0.68207049, 87.59800720, 1211.00463867, 39.57999802, 0.00000000
1, 3.0100, 301, 0.06614211, -0.86883849, -0.31625861, -15.91124725, -0.84759265, 3.01917791, 14.05103493, -59.37376022, 41.49957657, -3.28701425, 0.24125174, -6.54029703, 0.99796218, 0.02851386, -0.00373708, 0.05695998, -0.06184969, 0.92526537, -0.68213856, 87.59800720, 1211.00463867, 39.57999802, 0.00000000
1, 3.0200, 302, 0.04436675, -0.89604211, -0.31456846, -13.81653500, 2.14331555, 2.65376925, 14.19729233, -59.59365463, 41.46151352, -3.42450333, 0.22574586, -6.50756025, 0.99794364, 0.02971998, -0.00366189, 0.05667442, -0.04034759, 0.95489824, -0.68368971, 87.59800720, 1211.00463867, 39.57999802, 0.00000000
1, 3.0300, 303, 0.01784664, -0.92278492, -0.32351115, -12.83423615, 5.09004879, 2.36114883, 13.94133854, -61.00099564, 41.86118317, -3.55159831, 0.22491743, -6.44921207, 0.99793875, 0.03082909, -0.00370184, 0.05616242, -0.01392824, 0.98390681, -0.67461121, 87.59800720, 1211.00463867, 39.57999802, 0.00000000
1, 3.0400, 304, 0.00846330, -0.94774288, -0.33111548, -13.28028488, 6.59382343, 2.53475499, 13.94133854, -61.00099564, 41.86118317, -3.68284440, 0.22876227, -6.37634182, 0.99793828, 0.03197257, -0.00377931, 0.05552247, -0.00449585, 1.01110077, -0.66686732, 87.59800720, 1211.00463867, 39.57999802, 0.00000000
1, 3.0500, 305, 0.00764883, -0.96673596, -0.34569094, -14.64087772, 7.20617580, 3.27250266, 13.46600056, -59.76956940, 41.88021851, -3.82749963, 0.22857654, -6.29462814, 0.99793643, 0.03323513, -0.00382408, 0.05480611, -0.00365150, 1.03252447, -0.65213442, 87.59800720, 1211.00463867, 39.57999802, 0.00000000
1, 3.0600, 306, 0.01354810, -0.97020888, -0.35605115, -16.00514603, 7.17270088, 4.68223858, 13.53913212, -59.72559738, 41.80408859, -3.98159814, 0.21631879, -6.24701118, 0.99791360, 0.03458453, -0.00377666, 0.05438998, -0.00968186, 1.03864706, -0.64159644, 87.59800720, 1211.00463867, 39.57999802, 0.00000000
1, 3.0700, 307, 0.01410693, -0.96969980, -0.36084127, -17.25735283, 6.19179535, 6.37054300, 14.34354877, -61.57272339, 42.05150604, -4.15241337, 0.18420239, -6.16123390, 0.99790120, 0.03608997, -0.00355105, 0.05364749, -0.01064422, 1.04097915, -0.63660878, 87.59800720, 1211.00463867, 39.57999802, 0.00000000
1, 3.0800, 308, 0.02144773, -0.94994920, -0.36541936, -16.57318115, 2.90630794, 8.25056839, 13.17348671, -60.95701218, 41.44248199, -4.31694555, 0.12153484, -6.09749603, 0.99787778, 0.03755384, -0.00306149, 0.05310792, -0.01886195, 1.02417612, -0.63181829, 87.59800720, 1211.00463867, 39.57999802, 0.00000000
1, 3.0900, 309, 0.00371787, -0.89851880, -0.39204365, -13.79660702, 1.16999519, 10.84231472, 13.17348671, -60.95701218, 41.44248199, -4.45395899, 0.02820898, -6.03897762, 0.99785793, 0.03879142, -0.00229253, 0.05262627, -0.00258765, 0.97534221, -0.60500014, 87.59800720, 1211.00463867, 39.57999802, 0.00000000
1, 3.1000, 310, -0.03547771, -0.86327493, -0.39375749, -9.45179176, 2.18749523, 13.68052101, 13.72195435, -59.54967499, 40.85249329, -4.54730034, -0.08652052, -5.95984507, 0.99785984, 0.03965782, -0.00130898, 0.05197497, 0.03476641, 0.94201756, -0.60313696, 87.59800720, 1211.00463867, 39.57999802, 0.00000000
1, 3.1100, 311, -0.05531950, -0.83644664, -0.40664309, -3.69171190, -0.57493520, 16.43492699, 13.57569790, -60.95701218, 41.08087540, -4.59169912, -0.24667948, -5.93743420, 0.99784958, 0.04011694, 0.00007337, 0.05183512, 0.05216382, 0.91624087, -0.59016293, 87.59800720, 1211.00463867, 39.57999802, 0.00000000
1, 3.1200, 312, -0.04168145, -0.83369130, -0.41419724, 1.75682318, -5.22632980, 17.00601959, 13.97790337, -61.22089005, 41.93731308, -4.57407665, -0.42291743, -5.91326332, 0.99785900, 0.04004256, 0.00162447, 0.05168569, 0.03547780, 0.91360933, -0.58258450, 87.59800720, 1211.00463867, 39.57999802, 0.00000000
1, 3.1300, 313, -0.01372576, -0.82796282, -0.43683484, 6.56169415, -10.11959076, 16.30835724, 13.64882374, -61.30884552, 41.25216293, -4.50891638, -0.61355931, -5.93735743, 0.99785984, 0.03956128, 0.00330570, 0.05195954, 0.00427531, 0.90707171, -0.55998582, 87.59800720, 1211.00463867, 39.57999802, 0.00000000
1, 3.1400, 314, 0.00522741, -0.81664377, -0.44113117, 10.31103420, -11.86658001, 14.73084164, 13.64882374, -61.30884552, 41.25216293, -4.40627670, -0.79724783, -5.98487473, 0.99786019, 0.03875211, 0.00493581, 0.05243137, -0.01796344, 0.89416337, -0.55577779, 87.59800720, 1211.00463867, 39.57999802, 0.00000000
1, 3.1500, 315, 0.00749636, -0.79841834, -0.42876065, 11.13522911, -12.23118114, 11.15225983, 13.46600056, -61.70465851, 41.70893478, -4.29525709, -0.94988424, -6.05118847, 0.99785399, 0.03785810, 0.00629393, 0.05305334, -0.02312887, 0.87402904, -0.56825382, 87.59800720, 1211.00463867, 39.57999802, 0.00000000
1, 3.1600, 316, 0.00750957, -0.77270669, -0.39793083, 10.91259193, -11.62002850, 6.15597200, 13.57569790, -62.14445114, 41.32828903, -4.19402552, -1.05270016, -6.17312860, 0.99782044, 0.03703128, 0.00719676, 0.05414197, -0.02530174, 0.84642744, -0.59918916, 87.59800720, 1211.00463867, 39.57999802, 0.00000000
1, 3.1700, 317, -0.00182559, -0.76751184, -0.35430437, 8.89640141, -8.42280769, -0.45039824, 13.28317833, -63.94759750, 41.42345047, -4.10500526, -1.08372033, -6.25316000, 0.99780774, 0.03627583, 0.00748362, 0.05484279, -0.01699718, 0.83961713, -0.64291495, 87.59800720, 1211.00463867, 39.57999802, 0.00000000
1, 3.1800, 318, -0.00467941, -0.79748553, -0.32707420, 4.31538153, -4.10215807, -7.72843504, 13.13692093, -61.83659363, 41.30925751, -4.06170940, -1.03044116, -6.32328606, 0.99779284, 0.03587793, 0.00701843, 0.05543437, -0.01376876, 0.86851752, -0.67022920, 87.59800720, 1211.00463867, 39.57999802, 0.00000000
1, 3.1900, 319, -0.00966791, -0.86102045, -0.29229277, -0.07335494, -0.14991395, -14.41714096, 13.13692093, -61.83659363, 41.30925751, -4.06231833, -0.89983612, -6.38434744, 0.99777484, 0.03582388, 0.00586177, 0.05592629, -0.00698821, 0.93179476, -0.70506030, 87.59800720, 1211.00463867, 39.57999802, 0.00000000
1, 3.2000, 320, -0.01474131, -0.96045321, -0.29013804, -2.70260406, 4.41809893, -19.07678032, 13.28317833, -61.08895111, 41.21409988, -4.08921623, -0.70787919, -6.42272472, 0.99776268, 0.03596669, 0.00416514, 0.05620280, 0.00106289, 1.03155589, -0.70723671, 87.59800720, 1211.00463867, 39.57999802, 0.00000000
1, 3.2100, 321, -0.03614702, -1.09673262, -0.28251833, -3.79268742, 8.65789509, -20.74213982, 13.86821175, -62.49628448, 41.23313141, -4.11956549, -0.48545897, -6.46590281, 0.99774593, 0.03612347, 0.00219997, 0.05651078, 0.02621274, 1.16841972, -0.71485877, 87.59800720, 1211.00463867, 39.57999802, 0.00000000
1, 3.2200, 322, -0.09701878, -1.24136305, -0.29861972, -2.20481253, 11.47578907, -18.08616447, 14.05103493, -61.79261780, 41.34732437, -4.14100456, -0.27324119, -6.43624496, 0.99776357, 0.03620591, 0.00035097, 0.05618649, 0.09091812, 1.31347990, -0.69875723, 87.59800720, 1211.00463867, 39.57999802, 0.00000000
1, 3.2300, 323, -0.15050495, -1.35221255, -0.29599872, 2.61597514, 11.47072029, -10.15562820, 14.38011456, -60.73711777, 41.95634842, -4.11377478, -0.13325231, -6.37455034, 0.99780685, 0.03590081, -0.00083527, 0.05560555, 0.14740475, 1.42420208, -0.70140171, 87.59800720, 1211.00463867, 39.57999802, 0.00000000
1, 3.2400, 324, -0.16218415, -1.34579504, -0.28832662, 8.57231617, 8.07218266, 3.36030698, 14.38011456, -60.73711777, 41.95634842, -4.02670574, -0.13048543, -6.28869343, 0.99787533, 0.03514190, -0.00079078, 0.05485769, 0.16005255, 1.41668296, -0.70915532, 87.59800720, 1211.00463867, 39.57999802, 0.00000000
1, 3.2500, 325, -0.10788898, -1.22325385, -0.26947090, 14.75231171, 1.77637482, 16.81464767, 14.38011456, -60.60517502, 41.68989944, -3.87816739, -0.27651054, -6.20578146, 0.99795485, 0.03391776, 0.00057653, 0.05417955, 0.10421287, 1.29192019, -0.72816139, 87.59800720, 1211.00463867, 39.57999802, 0.00000000
1, 3.2600, 326, -0.04435841, -1.08183110, -0.25437883, 17.51783371, -2.38411474, 28.16219330, 13.64882374, -59.59365463, 41.29022598, -3.69429564, -0.54449284, -6.14807320, 0.99802274, 0.03244115, 0.00301375, 0.05375078, 0.03674641, 1.14752936, -0.74343026, 87.59800720, 1211.00463867, 39.57999802, 0.00000000
1, 3.2700, 327, -0.00381437, -0.96301931, -0.24197678, 18.19461060, -4.41021156, 34.92033005, 13.97790337, -60.69313812, 41.74699402, -3.51217246, -0.88162243, -6.04948473, 0.99809587, 0.03100685, 0.00606222, 0.05297627, -0.00930242, 1.02548587, -0.75598222, 87.59800720, 1211.00463867, 39.57999802, 0.00000000
1, 3.2800, 328, 0.02329788, -0.86334378, -0.22318189, 20.11099434, -5.78485966, 35.95784378, 13.46600056, -62.80414200, 41.36635590, -3.31146312, -1.23414731, -5.96070433, 0.99815643, 0.02941291, 0.00924849, 0.05227952, -0.04255061, 0.92244035, -0.77488273, 87.59800720, 1211.00463867, 39.57999802, 0.00000000
1, 3.2900, 329, 0.03469686, -0.82046729, -0.20924264, 21.20515823, -4.74555302, 32.70677948, 13.46600056, -62.80414200, 41.36635590, -3.10023642, -1.55305123, -5.87688541, 0.99820924, 0.02770780, 0.01214313, 0.05160567, -0.05978214, 0.87591696, -0.78890193, 87.59800720, 1211.00463867, 39.57999802, 0.00000000
1, 3.3000, 330, 0.03377727, -0.82177788, -0.20421608, 21.47371674, -3.58482552, 26.85920715, 13.02722931, -62.80414200, 41.88021851, -2.88653398, -1.81398356, -5.80684805, 0.99825418, 0.02595314, 0.01452836, 0.05102837, -0.06381404, 0.87351912, -0.79399139, 87.59800720, 1211.00463867, 39.57999802, 0.00000000
1, 3.3100, 331, 0.00505527, -0.85284072, -0.21189076, 20.34177208, -0.80752403, 20.11825562, 12.77127552, -63.85964203, 41.95634842, -2.67494655, -1.99947989, -5.77454853, 0.99828595, 0.02418663, 0.01624542, 0.05075645, -0.03883482, 0.90088296, -0.78638232, 87.59800720, 1211.00463867, 39.57999802, 0.00000000
1, 3.3200, 332, 0.21805277, -0.95105559, -0.22399113, 14.97233486, -7.51648808, 24.91556549, 11.96685791, -64.21147156, 42.18473053, -2.52584839, -2.25829339, -5.74908972, 0.99828357, 0.02299639, 0.01857138, 0.05056108, -0.25519413, 0.99596405, -0.77430809, 87.59800720, 1211.00463867, 39.57999802, 0.00000000
1, 3.3300, 333, -0.10643466, -0.90557736, -0.20342530, 15.15873528, -0.84165347, 35.61988831, 11.67433929, -63.50780487, 41.86118317, -2.37776470, -2.58993745, -5.62099886, 0.99830413, 0.02182605, 0.02155040, 0.04947805, 0.06307877, 0.94796854, -0.79473329, 87.59800720, 1211.00463867, 39.57999802, 0.00000000
1, 3.3400, 334, -0.17854187, -0.92834103, -0.22699089, 10.70725060, 3.79801106, 21.42230988, 11.82060146, -63.68372726, 42.24182510, -2.27417445, -2.77290320, -5.50495005, 0.99833429, 0.02097759, 0.02321042, 0.04847735, 0.13125888, 0.96863449, -0.77107710, 87.59800720, 1211.00463867, 39.57999802, 0.00000000
1, 3.3500, 335, -0.13138275, -0.95876729, -0.20989437, 9.07100201, 1.44800305, 14.22353745, 11.82060146, -63.68372726, 42.24182510, -2.18566132, -2.89866662, -5.43836260, 0.99835002, 0.02024446, 0.02435534, 0.04789889, 0.08159743, 0.99740636, -0.78811765, 87.59800720, 1211.00463867, 39.57999802, 0.00000000
1, 3.3600, 336, -0.09838136, -0.97213250, -0.19363013, 6.55343819, 2.61614633, 13.99212360, 12.22280693, -64.03556061, 42.47021484, -2.09520221, -3.02653527, -5.40265560, 0.99835074, 0.01950079, 0.02551330, 0.04758756, 0.04650053, 1.00938392, -0.80432785, 87.59800720, 1211.00463867, 39.57999802, 0.00000000
1, 3.3700, 337, -0.10082543, -0.96204907, -0.17967720, 4.39367056, 2.43008900, 15.96359253, 11.78403568, -65.66278839, 42.54634094, -2.05434918, -3.16477346, -5.31982756, 0.99835831, 0.01918178, 0.02674854, 0.04687691, 0.04654370, 0.99810314, -0.81819713, 87.59800720, 1211.00463867, 39.57999802, 0.00000000
1, 3.3800, 338, -0.09989728, -0.94613701, -0.17275317, 5.35344791, 2.53534436, 15.22457981, 12.03998470, -65.35493469, 41.74699402, -2.00401807, -3.29585242, -5.23910522, 0.99836624, 0.01877610, 0.02792441, 0.04618036, 0.04324782, 0.98139185, -0.82501805, 87.59800720, 1211.00463867, 39.57999802, 0.00000000
1, 3.3900, 339, -0.08485799, -0.92657417, -0.15789518, 6.69879818, 0.68144685, 13.79279995, 11.52808189, -64.43137360, 42.26086044, -1.93945205, -3.42083526, -5.18137217, 0.99836707, 0.01824822, 0.02904856, 0.04567861, 0.02599729, 0.96080697, -0.83978373, 87.59800720, 1211.00463867, 39.57999802, 0.00000000
1, 3.4000, 340, -0.05936152, -0.90347993, -0.15646653, 8.72352028, -0.16393378, 11.87037468, 11.52808189, -64.43137360, 42.26086044, -1.85406613, -3.53133106, -5.13930655, 0.99836713, 0.01753636, 0.03005175, 0.04530471, -0.00152541, 0.93634862, -0.84113657, 87.59800720, 1211.00463867, 39.57999802, 0.00000000
1, 3.4100, 341, -0.04413563, -0.87218618, -0.14890683, 9.37736320, -0.75215286, 10.36185169, 11.67433929, -63.77168274, 41.61376953, -1.74079549, -3.62911940, -5.15054083, 0.99835229, 0.01659036, 0.03094690, 0.04538461, -0.01853702, 0.90339869, -0.84863883, 87.59800720, 1211.00463867, 39.57999802, 0.00000000
1, 3.4200, 342, -0.03626302, -0.83870339, -0.15778056, 10.87860298, -1.57103288, 8.67010212, 11.96685791, -64.82717896, 42.16569901, -1.63277709, -3.71541977, -5.13437939, 0.99834931, 0.01567826, 0.03174379, 0.04522425, -0.02799724, 0.86786270, -0.83972627, 87.59800720, 1211.00463867, 39.57999802, 0.00000000
1, 3.4300, 343, -0.02649388, -0.82398838, -0.16562970, 11.32490921, -1.49308789, 6.19183397, 12.29593849, -65.61880493, 41.89925385, -1.51988661, -3.77848411, -5.12701988, 0.99834883, 0.01471704, 0.03233873, 0.04513532, -0.03902688, 0.85120046, -0.83185017, 87.59800720, 1211.00463867, 39.57999802, 0.00000000
1, 3.4400, 344, -0.02083932, -0.82299513, -0.15549953, 12.39324474, -0.63662511, 3.62255955, 12.36906433, -66.41043091, 42.41311646, -1.39622068, -3.81453252, -5.12159824, 0.99835581, 0.01365202, 0.03270214, 0.04505652, -0.04549064, 0.84813881, -0.84198117, 87.59800720, 1211.00463867, 39.57999802, 0.00000000
1, 3.4500, 345, -0.03813197, -0.82122344, -0.15238348, 14.24951744, -0.06624253, 0.02531797, 12.36906433, -66.41043091, 42.41311646, -1.25354362, -3.81507230, -5.12462854, 0.99837065, 0.01241004, 0.03276259, 0.04504222, -0.02846975, 0.84400505, -0.84513581, 87.59800720, 1211.00463867, 39.57999802, 0.00000000
1, 3.4600, 346, -0.04552333, -0.83795244, -0.14018446, 15.37126350, 0.55488759, -4.93971634, 11.52808189, -65.83870697, 42.22279358, -1.08097184, -3.76687932, -5.17994404, 0.99838042, 0.01090349, 0.03240522, 0.04547143, -0.02054957, 0.85803908, -0.85742772, 87.59800720, 1211.00463867, 39.57999802, 0.00000000
1, 3.4700, 347, -0.05686678, -0.84707737, -0.12862024, 16.70555687, 0.49843207, -9.28682899, 11.49152088, -65.17901611, 42.01344299, -0.91232318, -3.67864990, -5.21221209, 0.99840778, 0.00940848, 0.03170072, 0.04569983, -0.00791509, 0.86409789, -0.86913371, 87.59800720, 1211.00463867, 39.57999802, 0.00000000
1, 3.4800, 348, -0.05014424, -0.85736895, -0.09942134, 18.05515862, -0.18512523, -13.04950905, 11.93029308, -63.77168274, 41.95634842, -0.72933799, -3.55772185, -5.26446104, 0.99843419, 0.00778042, 0.03071645, 0.04609921, -0.01273629, 0.87127161, -0.89850229, 87.59800720, 1211.00463867, 39.57999802, 0.00000000
1, 3.4900, 349, -0.03791670, -0.88690913, -0.07411560, 16.08251953, -0.00266502, -15.72911739, 12.07655048, -63.90362167, 42.35601807, -0.56589508, -3.41097355, -5.32392454, 0.99845940, 0.00631306, 0.02950022, 0.04656896, -0.02257112, 0.89780164, -0.92399335, 87.59800720, 1211.00463867, 39.57999802, 0.00000000
1, 3.5000, 350, -0.03670301, -0.92397976, -0.07895261, 13.96386528, 0.27595592, -16.99999428, 12.07655048, -63.90362167, 42.35601807, -0.42374259, -3.25119495, -5.38455439, 0.99848247, 0.00502477, 0.02816308, 0.04705735, -0.02105809, 0.93225563, -0.91934299, 87.59800720, 1211.00463867, 39.57999802, 0.00000000
1, 3.5100, 351, -0.03232823, -0.96309739, -0.08050831, 10.86905479, 0.01387124, -16.08196068, 11.63777828, -64.16749573, 42.45117950, -0.27646786, -3.09920096, -5.48275232, 0.99848425, 0.00370236, 0.02689595, 0.04787531, -0.02271928, 0.96907473, -0.91795695, 87.59800720, 1211.00463867, 39.57999802, 0.00000000
1, 3.5200, 352, -0.05724186, -0.98614430, -0.09232999, 8.49385548, 1.36514437, -13.77868366, 11.96685791, -63.46382904, 42.81278610, -0.19019660, -2.96544766, -5.52009821, 0.99850208, 0.00290329, 0.02576556, 0.04818001, 0.00466575, 0.98999590, -0.90627921, 87.59800720, 1211.00463867, 39.57999802, 0.00000000
1, 3.5300, 353, -0.09203830, -0.99197865, -0.11665896, 6.79120874, 0.48220602, -11.99905014, 12.33250427, -64.78320312, 42.45117950, -0.12097494, -2.85141134, -5.55897188, 0.99851251, 0.00226065, 0.02480022, 0.04850333, 0.04157126, 0.99453413, -0.88206327, 87.59800720, 1211.00463867, 39.57999802, 0.00000000
1, 3.5400, 354, -0.11326964, -0.98898792, -0.13302284, 6.43996191, 0.34570915, -11.15708542, 12.80784130, -63.99157715, 42.54634094, -0.05540009, -2.74569750, -5.59597254, 0.99852055, 0.00165226, 0.02390628, 0.04881220, 0.06467313, 0.99037695, -0.86579448, 87.59800720, 1211.00463867, 39.57999802, 0.00000000
1, 3.5500, 355, -0.13750486, -0.97608411, -0.13479501, 6.50047159, 0.63146442, -11.81923771, 12.80784130, -63.99157715, 42.54634094, 0.01068362, -2.63273382, -5.63249588, 0.99852884, 0.00103563, 0.02294974, 0.04911789, 0.09082209, 0.97632945, -0.86411452, 87.59800720, 1211.00463867, 39.57999802, 0.00000000
1, 3.5600, 356, -0.11864422, -0.97652853, -0.13551524, 5.66156530, -0.18171509, -12.87088776, 12.77127552, -64.91514587, 42.39408493, 0.10829605, -2.52868438, -5.72043228, 0.99851173, 0.00015738, 0.02208479, 0.04986645, 0.07393982, 0.97552538, -0.86348420, 87.59800720, 1211.00463867, 39.57999802, 0.00000000
1, 3.5700, 357, -0.10795356, -0.99579716, -0.14504406, 5.23676252, 1.84624004, -13.26641083, 13.28317833, -63.63974380, 42.39408493, 0.16143052, -2.39783931, -5.75001764, 0.99852324, -0.00035720, 0.02096785, 0.05011684, 0.06524336, 0.99331927, -0.85404015, 87.59800720, 1211.00463867, 39.57999802, 0.00000000
1, 3.5800, 358, -0.10788974, -1.02305090, -0.15296163, 5.48051357, 4.40182114, -13.07280350, 12.84440613, -63.59576416, 42.56536865, 0.21634895, -2.25995302, -5.75486755, 0.99854517, -0.00089529, 0.01979039, 0.05015254, 0.06755409, 1.01965809, -0.84621853, 87.59800720, 1211.00463867, 39.57999802, 0.00000000
1, 3.5900, 359, -0.08904610, -1.04471350, -0.15964940, 8.53601837, 4.53448534, -12.37623119, 13.42943573, -62.62821960, 42.27989578, 0.30174419, -2.12813950, -5.75643730, 0.99856538, -0.00169696, 0.01867916, 0.05015558, 0.05106827, 1.04006219, -0.83961797, 87.59800720, 1211.00463867, 39.57999802, 0.00000000
1, 3.6000, 360, -0.06999784, -1.08833897, -0.12784722, 11.69356632, 5.81933641, -10.72409821, 13.42943573, -62.62821960, 42.27989578, 0.41839287, -2.00743484, -5.74060011, 0.99858874, -0.00276884, 0.01767798, 0.05000332, 0.03419205, 1.08183241, -0.87149006, 87.59800720, 1211.00463867, 39.57999802, 0.00000000
1, 3.6100, 361, -0.07740205, -1.16443217, -0.11324325, 11.69424629, 8.61396122, -7.39577961, 12.62501812, -62.45230865, 42.88891602, 0.54863459, -1.91108799, -5.72451544, 0.99860609, -0.00394834, 0.01689466, 0.04984777, 0.04348979, 1.15578663, -0.88614380, 87.59800720, 1211.00463867, 39.57999802, 0.00000000
1, 3.6200, 362, -0.05686799, -1.25930655, -0.11745290, 9.13006783, 7.53509188, -0.29140097, 13.39287472, -63.24393463, 42.58440399, 0.63889688, -1.88279283, -5.65621662, 0.99863631, -0.00475723, 0.01668451, 0.04924083, 0.02400940, 1.24870431, -0.88195080, 87.59800720, 1211.00463867, 39.57999802, 0.00000000
1, 3.6300, 363, -0.09453733, -1.37021756, -0.10770592, 3.76921034, 5.69944429, 9.81151485, 13.35630894, -63.19995117, 42.69859695, 0.67525196, -1.95587385, -5.57005644, 0.99866092, -0.00505556, 0.01733320, 0.04848038, 0.06094859, 1.35859811, -0.89166218, 87.59800720, 1211.00463867, 39.57999802, 0.00000000
1, 3.6400, 364, -0.12782131, -1.46956348, -0.09647432, -1.81055069, 3.98028398, 13.67725182, 13.68538952, -62.49628448, 42.10860443, 0.65569919, -2.07117176, -5.48603725, 0.99867976, -0.00484962, 0.01832618, 0.04774451, 0.09246384, 1.45792711, -0.90283251, 87.59800720, 1211.00463867, 39.57999802, 0.00000000
1, 3.6500, 365, -0.14380880, -1.55132270, -0.08831225, -5.47593117, 3.73486233, 14.35128403, 13.31974411, -62.40832901, 42.35601807, 0.59929413, -2.19359350, -5.40132284, 0.99869746, -0.00432114, 0.01936639, 0.04700869, 0.10633640, 1.54047418, -0.91092634, 87.59800720, 1211.00463867, 39.57999802, 0.00000000
1, 3.6600, 366, -0.14285785, -1.59232461, -0.06588870, -6.78033209, 5.05759192, 15.75419044, 13.31974411, -62.40832901, 42.35601807, 0.52929193, -2.32430887, -5.33553076, 0.99870455, -0.00366896, 0.02047477, 0.04644081, 0.10318492, 1.58262622, -0.93327665, 87.59800720, 1211.00463867, 39.57999802, 0.00000000
1, 3.6700, 367, -0.15842986, -1.59854233, -0.10834843, -4.35923338, 6.74758148, 18.52453041, 13.17348671, -62.84811401, 42.67956161, 0.48264769, -2.47552037, -5.20814371, 0.99872959, -0.00322513, 0.02177012, 0.04533207, 0.11627508, 1.58991122, -0.89072508, 87.59800720, 1211.00463867, 39.57999802, 0.00000000
1, 3.6800, 368, -0.13338979, -1.57266176, -0.12391974, 6.06643629, 6.92356920, 24.33232498, 13.57569790, -63.72769928, 42.39408493, 0.53934020, -2.68071961, -5.06113434, 0.99874532, -0.00366796, 0.02357623, 0.04402980, 0.08802497, 1.56382620, -0.87501109, 87.59800720, 1211.00463867, 39.57999802, 0.00000000
1, 3.6900, 369, -0.12225719, -1.54190457, -0.01253433, 15.38109779, 10.29543114, 29.34937859, 13.02722931, -64.95912170, 42.73666000, 0.68712920, -2.92201710, -4.86739826, 0.99876183, -0.00490629, 0.02572772, 0.04229596, 0.07283050, 1.53081715, -0.98618096, 87.59800720, 1211.00463867, 39.57999802, 0.00000000
1, 3.7000, 370, -0.08040121, -1.53979433, -0.01080052, 10.50817490, 11.65934849, 30.72891045, 12.36906433, -66.32247925, 42.56536865, 0.78479642, -3.17208934, -4.65575981, 0.99877632, -0.00571611, 0.02793274, 0.04041207, 0.02671326, 1.52674270, -0.98767108, 87.59800720, 1211.00463867, 39.57999802, 0.00000000
1, 3.7100, 371, -0.02581388, -1.53897750, -0.05533574, 5.12110138, 5.78400469, 28.54763603, 12.36906433, -66.32247925, 42.56536865, 0.83116633, -3.41917419, -4.54021454, 0.99875277, -0.00606262, 0.03009647, 0.03937557, -0.03219298, 1.52473032, -0.94287801, 87.59800720, 1211.00463867, 39.57999802, 0.00000000
1, 3.7200, 372, 0.03582161, -1.48336554, -0.13136955, 3.27976012, -3.01641989, 28.56161118, 12.25937271, -64.60728455, 42.39408493, 0.86111742, -3.69839382, -4.47346115, 0.99869907, -0.00624559, 0.03253659, 0.03876466, -0.09845236, 1.46858871, -0.86655682, 87.59800720, 1211.00463867, 39.57999802, 0.00000000
1, 3.7300, 373, 0.09672245, -1.33524585, -0.20884043, 3.78043485, -13.65068436, 26.38531494, 11.78403568, -65.13504028, 42.41311646, 0.90109402, -3.99268246, -4.51467943, 0.99859750, -0.00648052, 0.03511709, 0.03908896, -0.16444342, 1.31980848, -0.78874338, 87.59800720, 1211.00463867, 39.57999802, 0.00000000
1, 3.7400, 374, 0.12732369, -1.16588485, -0.29279751, 2.83068466, -21.42955208, 20.96876717, 11.56464767, -66.85022736, 42.58440399, 0.93674946, -4.26183605, -4.64756918, 0.99846572, -0.00665463, 0.03748235, 0.04021346, -0.19991979, 1.14979815, -0.70443332, 87.59800720, 1211.00463867, 39.57999802, 0.00000000
1, 3.7500, 375, 0.10057959, -0.98700088, -0.39826599, 1.15145898, -26.66255188, 14.81694698, 11.52808189, -66.76226807, 41.88021851, 0.96027005, -4.49035549, -4.85036564, 0.99831623, -0.00670825, 0.03949356, 0.04195281, -0.17744738, 0.97042727, -0.59863693, 87.59800720, 1211.00463867, 39.57999802, 0.00000000
1, 3.7600, 376, 0.07607196, -0.82998025, -0.46780616, -0.08290368, -33.05397034, 8.35816193, 11.52808189, -66.76226807, 41.88021851, 0.95361054, -4.66459799, -5.16412687, 0.99813789, -0.00647313, 0.04102691, 0.04467305, -0.15638599, 0.81319898, -0.52882183, 87.59800720, 1211.00463867, 39.57999802, 0.00000000
1, 3.7700, 377, 0.07759894, -0.73064762, -0.50036877, 0.84039110, -37.87605286, 5.63479090, 11.34525871, -66.49839020, 41.67086411, 0.98425812, -4.84378672, -5.50379992, 0.99793518, -0.00654284, 0.04261913, 0.04760405, -0.16086490, 0.71374488, -0.49601483, 87.59800720, 1211.00463867, 39.57999802, 0.00000000
1, 3.7800, 378, 0.04513268, -0.65979141, -0.55513710, 1.55643296, -38.44028854, 4.79455805, 10.90648746, -66.01461792, 41.17603302, 1.02369571, -5.01671791, -5.85195065, 0.99771965, -0.00667918, 0.04416190, 0.05060429, -0.13147467, 0.64224261, -0.44097352, 87.59800720, 1211.00463867, 39.57999802, 0.00000000
1, 3.7900, 379, -0.02383208, -0.62585253, -0.56570828, -1.00613821, -33.92348862, 4.38758802, 10.46771145, -66.58635712, 40.71926498, 1.03550088, -5.17065287, -6.15840101, 0.99752104, -0.00659120, 0.04552507, 0.05325242, -0.06531285, 0.60787356, -0.43014777, 87.59800720, 1211.00463867, 39.57999802, 0.00000000
1, 3.8000, 380, -0.04518557, -0.64101613, -0.55952734, -6.31641531, -28.26161957, 6.12249613, 10.97961807, -67.68582916, 41.04280853, 0.99053687, -5.32224846, -6.40454292, 0.99734700, -0.00602769, 0.04683678, 0.05539804, -0.04657032, 0.62342238, -0.43609846, 87.59800720, 1211.00463867, 39.57999802, 0.00000000
1, 3.8100, 381, -0.09604274, -0.65888339, -0.53261161, -11.40886497, -18.67417908, 10.32991791, 10.97961807, -67.68582916, 41.04280853, 0.85754746, -5.48605871, -6.57108641, 0.99720502, -0.00471990, 0.04820499, 0.05688729, 0.00155135, 0.64286590, -0.46278459, 87.59800720, 1211.00463867, 39.57999802, 0.00000000
1, 3.8200, 382, -0.20250994, -0.70540649, -0.48943231, -15.76311970, -7.94428730, 17.45952034, 11.16243649, -67.02614594, 40.77635956, 0.70099282, -5.67721272, -6.58454800, 0.99712342, -0.00325568, 0.04979097, 0.05705541, 0.10490334, 0.69212341, -0.50570333, 87.59800720, 1211.00463867, 39.57999802, 0.00000000
1, 3.8300, 383, -0.26437613, -0.73430806, -0.50856090, -20.60081863, 1.13929641, 24.29231644, 10.02893925, -67.81777191, 40.26249695, 0.48686481, -5.90190220, -6.48738289, 0.99707747, -0.00132333, 0.05163818, 0.05628893, 0.16304629, 0.72436988, -0.48624113, 87.59800720, 1211.00463867, 39.57999802, 0.00000000
1, 3.8400, 384, -0.32192028, -0.77186131, -0.53585798, -21.38836861, 7.73173046, 29.02126312, 9.80955124, -67.59787750, 39.93895340, 0.25751796, -6.14806271, -6.31057262, 0.99705148, 0.00071107, 0.05366831, 0.05484262, 0.21645254, 0.76592630, -0.45854568, 87.59800720, 1211.00463867, 39.57999802, 0.00000000
1, 3.8500, 385, -0.33827800, -0.83557928, -0.53944725, -17.49320602, 8.48774624, 30.83580399, 9.29764843, -67.55389404, 40.09120941, 0.06509662, -6.40799141, -6.12001657, 0.99701488, 0.00241719, 0.05584170, 0.05326667, 0.22836836, 0.83326554, -0.45449042, 87.59800720, 1211.00463867, 39.57999802, 0.00000000
