SensorId, TimeStamp (s), FrameNumber, AccX (g), AccY (g), AccZ (g), GyroX (deg/s), GyroY (deg/s), GyroZ (deg/s), MagX (uT), MagY (uT), MagZ (uT), EulerX (deg), EulerY (deg), EulerZ (deg), QuatW, QuatX, QuatY, QuatZ, LinAccX (g), LinAccY (g), LinAccZ (g), Pressure (kPa), Altitude (m), Temperature (degC), HeaveMotion (m)
1, -0.0001, 0, 0.01039452, -0.96015769, -0.29136902, 1.23595643, -1.39792848, -0.10403435, 14.56293774, -62.23241043, 44.01180267, -0.48629111, -0.52655047, -0.59498447, 0.99996692, 0.00426743, 0.00457287, 0.00521159, -0.01956166, 0.96871912, -0.70855230, 87.60000610, 1210.81738281, 39.77999878, 0.00000000
1, 0.0099, 1, 0.00984888, -0.96501422, -0.28734839, 0.83645022, -1.14688396, 0.09582742, 14.56293774, -62.98005676, 44.24018860, -0.47804472, -0.53078592, -0.60585475, 0.99996650, 0.00419610, 0.00460980, 0.00530627, -0.01908713, 0.97339630, -0.71257389, 87.60000610, 1210.81738281, 39.77999878, 0.00000000
1, 0.0199, 2, 0.01004902, -0.96960282, -0.28417915, 0.05852856, -0.10346232, -0.07321700, 15.29422855, -62.80414200, 44.04986954, -0.47746491, -0.53038383, -0.60706121, 0.99996656, 0.00419107, 0.00460628, 0.00531676, -0.01931704, 0.97792733, -0.71574330, 87.60000610, 1210.81738281, 39.77999878, 0.00000000
1, 0.0299, 3, 0.00496744, -0.97475845, -0.28482547, -1.14951348, 1.17958724, -0.41169056, 14.48980618, -63.85964203, 43.89761353, -0.48885980, -0.52304018, -0.59673625, 0.99996686, 0.00428976, 0.00454205, 0.00522685, -0.01415769, 0.98319227, -0.71509677, 87.60000610, 1210.81738281, 39.77999878, 0.00000000
1, 0.0399, 4, 0.00056476, -0.98050874, -0.28777623, -1.63905859, 2.27901053, -0.72106636, 14.48980618, -63.85964203, 43.89761353, -0.49939328, -0.51572013, -0.60330456, 0.99996644, 0.00438160, 0.00447744, 0.00528431, -0.00957934, 0.98919046, -0.71214545, 87.60000610, 1210.81738281, 39.77999878, 0.00000000
1, 0.0499, 5, 0.00136726, -0.98255539, -0.29464352, -1.13134933, 1.66544986, -0.73551923, 14.89201736, -61.57272339, 43.36471558, -0.51055682, -0.50385016, -0.58927757, 0.99996710, 0.00447794, 0.00437389, 0.00516188, -0.01022856, 0.99140871, -0.70527804, 87.60000610, 1210.81738281, 39.77999878, 0.00000000
1, 0.0599, 6, 0.00372732, -0.98111898, -0.29460743, -0.65953666, 0.16736047, -0.18837427, 14.23385715, -61.92455292, 43.76438904, -0.51714027, -0.50156683, -0.58809102, 0.99996704, 0.00453524, 0.00435372, 0.00515169, -0.01248310, 0.99010235, -0.70531392, 87.60000610, 1210.81738281, 39.77999878, 0.00000000
1, 0.0699, 7, 0.00908614, -0.97618133, -0.29340583, -0.67505556, -0.90484869, 0.31648058, 14.70919418, -63.37586975, 43.74535370, -0.52397662, -0.50721091, -0.59570611, 0.99996620, 0.00459544, 0.00440236, 0.00521863, -0.01789403, 0.98527330, -0.70651412, 87.60000610, 1210.81738281, 39.77999878, 0.00000000
1, 0.0799, 8, 0.00922121, -0.96508116, -0.29347864, -0.71323609, -1.08124244, 0.59414196, 14.52637196, -61.96853638, 43.38374710, -0.53119379, -0.51602554, -0.60420245, 0.99996507, 0.00465915, 0.00447860, 0.00529340, -0.01817063, 0.97430438, -0.70643890, 87.60000610, 1210.81738281, 39.77999878, 0.00000000
1, 0.0899, 9, 0.00640310, -0.95726103, -0.29320720, -0.64033490, -0.94059217, 0.42109275, 14.52637196, -61.96853638, 43.38374710, -0.54985654, -0.53957051, -0.63944972, 0.99996173, 0.00482453, 0.00468172, 0.00560269, -0.01556445, 0.96665561, -0.70670664, 87.60000610, 1210.81738281, 39.77999878, 0.00000000
1, 0.0999, 10, 0.00131792, -0.95124739, -0.28866589, -1.09063339, -0.13162485, 0.05275535, 14.78232574, -61.13293076, 43.61213303, -0.56077242, -0.54045618, -0.64033341, 0.99996120, 0.00491987, 0.00468888, 0.00561088, -0.01075268, 0.96095538, -0.71124250, 87.60000610, 1210.81738281, 39.77999878, 0.00000000
1, 0.1099, 11, -0.00090915, -0.95036846, -0.29043773, -1.39735520, 0.55725235, -0.24823290, 13.97790337, -61.52874374, 43.42181396, -0.57469922, -0.53645682, -0.63545555, 0.99996096, 0.00504100, 0.00465351, 0.00556871, -0.00848132, 0.96030551, -0.70946884, 87.60000610, 1210.81738281, 39.77999878, 0.00000000
1, 0.1199, 12, 0.00040823, -0.95194787, -0.28957313, -1.05788910, 0.74917889, -0.28039321, 14.48980618, -62.45230865, 43.93567276, -0.58521914, -0.53159660, -0.62889445, 0.99996108, 0.00513230, 0.00461088, 0.00551167, -0.00971385, 0.96210140, -0.71033204, 87.60000610, 1210.81738281, 39.77999878, 0.00000000
1, 0.1299, 13, 0.00442853, -0.95393294, -0.28554356, -0.71842951, 0.40363860, 0.02771309, 14.78232574, -62.62821960, 43.63116455, -0.59235781, -0.53068960, -0.62481576, 0.99996102, 0.00519439, 0.00460281, 0.00547633, -0.01369802, 0.96422958, -0.71436048, 87.60000610, 1210.81738281, 39.77999878, 0.00000000
1, 0.1399, 14, 0.00754232, -0.95929492, -0.28874791, -0.97253764, 0.41538322, 0.23967727, 14.78232574, -62.62821960, 44.03083801, -0.59412676, -0.53488398, -0.64789695, 0.99995959, 0.00521096, 0.00463827, 0.00567800, -0.01682971, 0.96969920, -0.71115482, 87.60000610, 1210.81738281, 39.77999878, 0.00000000
1, 0.1499, 15, 0.01001683, -0.96587062, -0.29095256, -1.40881705, 1.11584353, 0.22058190, 14.70919418, -63.37586975, 44.03083801, -0.60810906, -0.53374422, -0.63630819, 0.99995959, 0.00533245, 0.00462817, 0.00557739, -0.01934400, 0.97638261, -0.70894861, 87.60000610, 1210.81738281, 39.77999878, 0.00000000
1, 0.1599, 16, 0.01078475, -0.97081703, -0.29565647, -1.60846674, 1.70092893, 0.02255379, 14.89201736, -62.32036591, 43.65019608, -0.62401944, -0.52899855, -0.61965549, 0.99995977, 0.00547039, 0.00458678, 0.00543249, -0.02005093, 0.98161089, -0.70424235, 87.60000610, 1210.81738281, 39.77999878, 0.00000000
1, 0.1699, 17, 0.00955141, -0.97504729, -0.29926938, -1.26611829, 1.54951358, 0.00074461, 14.63606358, -62.10047150, 43.45987701, -0.63652724, -0.52448350, -0.60459608, 0.99996012, 0.00557873, 0.00454752, 0.00530136, -0.01873257, 0.98607343, -0.70062762, 87.60000610, 1210.81738281, 39.77999878, 0.00000000
1, 0.1799, 18, 0.00881545, -0.97294283, -0.30396992, -1.08284223, 1.03547740, 0.04211177, 15.14796638, -61.39680099, 43.45987701, -0.64726126, -0.52186906, -0.59436756, 0.99996012, 0.00567188, 0.00452472, 0.00521240, -0.01793867, 0.98417103, -0.69592547, 87.60000610, 1210.81738281, 39.77999878, 0.00000000
1, 0.1899, 19, 0.00965076, -0.97450012, -0.30104896, -0.79874426, -0.73029399, 0.07443256, 14.70919418, -63.55178452, 43.63116455, -0.65774453, -0.52001935, -0.62850356, 0.99995810, 0.00576461, 0.00450638, 0.00551060, -0.01875982, 0.98589563, -0.69884461, 87.60000610, 1210.81738281, 39.77999878, 0.00000000
1, 0.1999, 20, 0.01243070, -0.97653484, -0.29300264, -0.51988375, -2.19018078, 0.28898326, 14.70919418, -63.55178452, 43.63116455, -0.66315424, -0.52917570, -0.64850801, 0.99995643, 0.00581306, 0.00458501, 0.00568584, -0.02159856, 0.98807991, -0.70688874, 87.60000610, 1210.81738281, 39.77999878, 0.00000000
1, 0.2099, 21, 0.01569175, -0.97478616, -0.28667769, 0.18354285, -2.52660346, 0.20944479, 14.70919418, -62.05649185, 44.04986954, -0.66155386, -0.53855246, -0.67208809, 0.99995494, 0.00580051, 0.00466572, 0.00589201, -0.02503644, 0.98634744, -0.71321183, 87.60000610, 1210.81738281, 39.77999878, 0.00000000
1, 0.2199, 22, 0.01302287, -0.97332382, -0.28125036, -0.14306194, -2.13490891, 0.23625739, 14.48980618, -63.11199188, 43.51697159, -0.66319114, -0.54704374, -0.69178534, 0.99995351, 0.00581605, 0.00473873, 0.00606439, -0.02252163, 0.98486811, -0.71863788, 87.60000610, 1210.81738281, 39.77999878, 0.00000000
1, 0.2299, 23, 0.01140890, -0.96879131, -0.27818942, -1.77924132, -0.99131167, -0.17415117, 14.85545158, -62.01251602, 43.70729446, -0.68108028, -0.54826957, -0.70143020, 0.99995202, 0.00597262, 0.00474798, 0.00614935, -0.02098312, 0.98052311, -0.72169590, 87.60000610, 1210.81738281, 39.77999878, 0.00000000
1, 0.2399, 24, 0.01096275, -0.96893096, -0.28733352, -2.60458899, -0.51292074, -0.44282106, 14.67262936, -62.14445114, 43.51697159, -0.69527155, -0.54230249, -0.73512125, 0.99994963, 0.00609752, 0.00469336, 0.00644362, -0.02048923, 0.98104608, -0.71254772, 87.60000610, 1210.81738281, 39.77999878, 0.00000000
1, 0.2499, 25, 0.00863180, -0.96980536, -0.28819600, -2.40468526, -0.80297029, -0.44953069, 14.67262936, -62.14445114, 43.51697159, -0.71940410, -0.54033893, -0.74365741, 0.99994791, 0.00630834, 0.00467439, 0.00651899, -0.01807155, 0.98220527, -0.71168256, 87.60000610, 1210.81738281, 39.77999878, 0.00000000
1, 0.2599, 26, 0.00699936, -0.96805769, -0.29235506, -2.29771590, -0.97623295, -0.29529586, 14.85545158, -62.14445114, 44.12599564, -0.74247891, -0.54036868, -0.75339913, 0.99994618, 0.00651009, 0.00467279, 0.00660494, -0.01642492, 0.98086405, -0.70751846, 87.60000610, 1210.81738281, 39.77999878, 0.00000000
1, 0.2699, 27, 0.00463541, -0.96620589, -0.29802898, -2.62390041, -0.79209054, -0.16737826, 14.85545158, -61.88057327, 44.06889725, -0.76879519, -0.54108816, -0.76095235, 0.99994409, 0.00674008, 0.00467711, 0.00667197, -0.01407431, 0.97944409, -0.70183885, 87.60000610, 1210.81738281, 39.77999878, 0.00000000
1, 0.2799, 28, 0.00303054, -0.96203774, -0.29900122, -3.23596048, -0.15820959, -0.39827520, 14.52637196, -62.71617889, 43.59310150, -0.80118054, -0.53773594, -0.76299644, 0.99994218, 0.00702257, 0.00464584, 0.00669092, -0.01244481, 0.97580218, -0.70085979, 87.60000610, 1210.81738281, 39.77999878, 0.00000000
1, 0.2899, 29, 0.00140721, -0.95438421, -0.30062556, -3.44853020, 0.17259550, -0.79497105, 15.33078861, -62.84811401, 43.36471558, -0.84433740, -0.53459740, -0.79003882, 0.99993801, 0.00740007, 0.00461419, 0.00692844, -0.01072869, 0.96878636, -0.69922721, 87.60000610, 1210.81738281, 39.77999878, 0.00000000
1, 0.2999, 30, 0.00105663, -0.95020276, -0.30718386, -3.26009202, -0.37001500, -1.10578680, 15.33078861, -62.84811401, 43.36471558, -0.87699103, -0.52511853, -0.79620010, 0.99993587, 0.00768469, 0.00452909, 0.00698289, -0.01028186, 0.96529460, -0.69265962, 87.60000610, 1210.81738281, 39.77999878, 0.00000000
1, 0.3099, 31, 0.00603387, -0.94985551, -0.30718854, -2.84034896, -1.51974010, -0.90272450, 15.07484055, -61.39680099, 43.82148361, -0.90557891, -0.52098602, -0.81282818, 0.99993312, 0.00793455, 0.00449013, 0.00712884, -0.01514231, 0.96547699, -0.69264793, 87.60000610, 1210.81738281, 39.77999878, 0.00000000
1, 0.3199, 32, 0.01211867, -0.95273644, -0.30043525, -1.85234094, -2.56749105, -0.36526951, 14.52637196, -60.38528061, 43.66922760, -0.92437583, -0.52510381, -0.83806622, 0.99992996, 0.00809982, 0.00452311, 0.00735009, -0.02124545, 0.96876138, -0.69939470, 87.60000610, 1210.81738281, 39.77999878, 0.00000000
1, 0.3299, 33, 0.01316949, -0.95837772, -0.29344898, -1.35665333, -2.34572363, -0.04571431, 14.48980618, -62.32036591, 44.03083801, -0.93818605, -0.53162313, -0.86034501, 0.99992722, 0.00822163, 0.00457752, 0.00754550, -0.02240348, 0.97465909, -0.70637584, 87.60000610, 1210.81738281, 39.77999878, 0.00000000
1, 0.3399, 34, 0.00771303, -0.96332586, -0.29406711, -1.88670719, -1.11337137, -0.10607524, 15.33078861, -63.19995117, 43.68825912, -0.94962448, -0.53992200, -0.89950401, 0.99992353, 0.00832358, 0.00464633, 0.00788826, -0.01705295, 0.97986436, -0.70575249, 87.60000610, 1210.81738281, 39.77999878, 0.00000000
1, 0.3499, 35, -0.00077552, -0.96599555, -0.29900962, -1.98351443, 0.31648254, -0.49759749, 15.33078861, -63.19995117, 43.68825912, -0.96943617, -0.53421813, -0.89757812, 0.99992239, 0.00849599, 0.00459534, 0.00787184, -0.00860037, 0.98278636, -0.70080543, 87.60000610, 1210.81738281, 39.77999878, 0.00000000
1, 0.3599, 36, -0.00638749, -0.96478128, -0.30004680, -1.76675045, 0.73614144, -0.87616068, 14.59950256, -61.52874374, 43.70729446, -0.98705894, -0.52365685, -0.89281642, 0.99992186, 0.00864886, 0.00450233, 0.00783020, -0.00282056, 0.98189539, -0.69976437, 87.60000610, 1210.81738281, 39.77999878, 0.00000000
1, 0.3699, 37, -0.00461292, -0.96016926, -0.29891747, -1.87417352, 0.23270904, -0.57000649, 14.92858315, -61.48476028, 43.53600693, -1.00579453, -0.51751608, -0.89192528, 0.99992073, 0.00881189, 0.00444754, 0.00782269, -0.00444979, 0.97759742, -0.70088959, 87.60000610, 1210.81738281, 39.77999878, 0.00000000
1, 0.3799, 38, 0.00017398, -0.95533562, -0.29941514, -1.57225299, -0.30580488, -0.01974614, 14.59950256, -61.08895111, 43.72632980, -1.02155125, -0.51823860, -0.89459813, 0.99991930, 0.00894954, 0.00445256, 0.00784668, -0.00920406, 0.97306955, -0.70038682, 87.60000610, 1210.81738281, 39.77999878, 0.00000000
1, 0.3899, 39, 0.00710728, -0.94799125, -0.29857907, -0.93131894, -0.54890239, 0.46537444, 14.63606358, -62.10047150, 43.61213303, -1.03781950, -0.52327371, -0.92678624, 0.99991560, 0.00909310, 0.00449283, 0.00812858, -0.01621033, 0.96595681, -0.70121807, 87.60000610, 1210.81738281, 39.77999878, 0.00000000
1, 0.3999, 40, 0.01094177, -0.94179946, -0.29513904, -1.22531593, -0.23012207, 0.77180737, 14.63606358, -62.10047150, 43.61213303, -1.05007243, -0.53132564, -0.92644942, 0.99991429, 0.00920057, 0.00456224, 0.00812677, -0.02016489, 0.96003222, -0.70465219, 87.60000610, 1210.81738281, 39.77999878, 0.00000000
1, 0.4099, 41, 0.00959603, -0.94046193, -0.29222113, -2.04048586, 0.77670681, 0.72515571, 15.18453217, -62.32036591, 43.66922760, -1.07038343, -0.53591245, -0.91647083, 0.99991322, 0.00937772, 0.00460164, 0.00804088, -0.01892715, 0.95900226, -0.70756340, 87.60000610, 1210.81738281, 39.77999878, 0.00000000
1, 0.4199, 42, 0.00853603, -0.94389671, -0.29585725, -2.24180555, 1.70656693, 0.42891133, 14.89201736, -62.23241043, 43.72632980, -1.09261191, -0.53489602, -0.89847136, 0.99991256, 0.00957089, 0.00459272, 0.00788462, -0.01788296, 0.96282125, -0.70392001, 87.60000610, 1210.81738281, 39.77999878, 0.00000000
1, 0.4299, 43, 0.00729126, -0.94846731, -0.30113423, -2.00958419, 1.96740675, 0.32821473, 14.96514320, -61.22089005, 43.40278244, -1.11250556, -0.53212470, -0.87831748, 0.99991244, 0.00974349, 0.00456888, 0.00770933, -0.01659655, 0.96775782, -0.69863635, 87.60000610, 1210.81738281, 39.77999878, 0.00000000
1, 0.4399, 44, 0.00486088, -0.95530695, -0.30471742, -1.39016283, 1.35956156, 0.01470899, 14.30698395, -61.61669922, 43.51697159, -1.13569880, -0.53602403, -0.89363438, 0.99990922, 0.00994674, 0.00460002, 0.00784424, -0.01413885, 0.97492290, -0.69504714, 87.60000610, 1210.81738281, 39.77999878, 0.00000000
1, 0.4499, 45, 0.00282780, -0.96157533, -0.30149236, -0.75870025, 0.77957201, 0.10605311, 15.25766277, -61.57272339, 43.13633347, -1.14319754, -0.53468657, -0.88573724, 0.99990922, 0.01001177, 0.00458852, 0.00777552, -0.01216930, 0.98147666, -0.69826591, 87.60000610, 1210.81738281, 39.77999878, 0.00000000
1, 0.4599, 46, 0.00192396, -0.96538174, -0.30460638, -0.90005636, 0.76358622, -0.03447696, 15.25766277, -61.57272339, 43.13633347, -1.15212524, -0.53206623, -0.87838304, 0.99990892, 0.01008920, 0.00456570, 0.00771147, -0.01122941, 0.98542082, -0.69514954, 87.60000610, 1210.81738281, 39.77999878, 0.00000000
1, 0.4699, 47, 0.00097602, -0.96915060, -0.30624369, -1.22508729, 1.27850258, -0.19844000, 14.30698395, -63.02403641, 43.99277496, -1.16424179, -0.52632201, -0.86654800, 0.99990892, 0.01019408, 0.00451581, 0.00760818, -0.01020858, 0.98939222, -0.69350886, 87.60000610, 1210.81738281, 39.77999878, 0.00000000
1, 0.4799, 48, -0.00052405, -0.96958202, -0.30737084, -0.79241222, 1.45799148, -0.47724333, 14.74575996, -61.96853638, 43.59310150, -1.17203581, -0.51738906, -0.85391903, 0.99990940, 0.01026101, 0.00443848, 0.00749749, -0.00856171, 0.98998463, -0.69237971, 87.60000610, 1210.81738281, 39.77999878, 0.00000000
1, 0.4899, 49, 0.00221983, -0.96704459, -0.30719960, -0.68372393, 1.09604847, -0.32698053, 14.89201736, -60.78109741, 43.42181396, -1.18266582, -0.52012777, -0.87357450, 0.99990708, 0.01035471, 0.00445990, 0.00766966, -0.01121705, 0.98758698, -0.69254893, 87.60000610, 1210.81738281, 39.77999878, 0.00000000
1, 0.4999, 50, 0.00350157, -0.96536428, -0.30818892, -0.77287030, 0.66251397, -0.08972598, 15.22109699, -60.91303253, 43.61213303, -1.19032800, -0.51728415, -0.86737764, 0.99990690, 0.01042114, 0.00443514, 0.00761563, -0.01254404, 0.98608494, -0.69155550, 87.60000610, 1210.81738281, 39.77999878, 0.00000000
1, 0.5099, 51, 0.00631883, -0.96459818, -0.30972186, -1.00815809, 0.41538838, 0.22220804, 15.22109699, -60.91303253, 43.61213303, -1.20036459, -0.51815850, -0.86255264, 0.99990630, 0.01050859, 0.00444255, 0.00757399, -0.01535045, 0.98548430, -0.69001925, 87.60000610, 1210.81738281, 39.77999878, 0.00000000
1, 0.5199, 52, 0.00626581, -0.96366239, -0.30522352, -0.91816157, -0.05161786, 0.49336734, 14.59950256, -62.89209366, 44.18309402, -1.20951986, -0.52301073, -0.86137831, 0.99990529, 0.01058875, 0.00448439, 0.00756455, -0.01535538, 0.98471123, -0.69451362, 87.60000610, 1210.81738281, 39.77999878, 0.00000000
1, 0.5299, 53, 0.00290536, -0.96475595, -0.30471420, -0.61719877, 0.48365593, 0.43338668, 15.03827477, -62.05649185, 44.01180267, -1.21564162, -0.52568310, -0.85533518, 0.99990505, 0.01064210, 0.00450787, 0.00751230, -0.01207350, 0.98593515, -0.69501948, 87.60000610, 1210.81738281, 39.77999878, 0.00000000
1, 0.5399, 54, 0.00042762, -0.96495378, -0.30412734, -0.72483075, 0.86418456, 0.19561991, 15.51361179, -62.23241043, 43.80245209, -1.21996748, -0.54818034, -0.87573355, 0.99990231, 0.01068214, 0.00470199, 0.00769255, -0.00970059, 0.98622918, -0.69560325, 87.60000610, 1210.81738281, 39.77999878, 0.00000000
1, 0.5499, 55, 0.00002073, -0.96323729, -0.30313489, -1.22695243, 0.99890023, 0.11209699, 15.03827477, -60.91303253, 43.59310150, -1.23215580, -0.54624069, -0.86562157, 0.99990195, 0.01078795, 0.00468520, 0.00760463, -0.00956418, 0.98466325, -0.69658995, 87.60000610, 1210.81738281, 39.77999878, 0.00000000
1, 0.5599, 56, 0.00228532, -0.95853829, -0.30519950, -0.97358268, 0.69154674, 0.14001662, 15.03827477, -60.91303253, 43.59310150, -1.24181819, -0.54547876, -0.85842234, 0.99990159, 0.01087192, 0.00467859, 0.00754213, -0.01181219, 0.98015642, -0.69452143, 87.60000610, 1210.81738281, 39.77999878, 0.00000000
1, 0.5699, 57, 0.00335877, -0.95353532, -0.30241349, -0.55945396, 0.45407069, 0.16891341, 14.81888676, -60.91303253, 43.53600693, -1.24736726, -0.54572815, -0.85347205, 0.99990135, 0.01092016, 0.00468087, 0.00749919, -0.01288144, 0.97526741, -0.69730490, 87.60000610, 1210.81738281, 39.77999878, 0.00000000
1, 0.5799, 58, 0.00604097, -0.94920462, -0.30195317, -0.75421745, 0.12604739, 0.19776964, 15.36735439, -61.17690277, 43.93567276, -1.25489008, -0.54722756, -0.85153496, 0.99990070, 0.01098582, 0.00469365, 0.00748274, -0.01557979, 0.97104210, -0.69776285, 87.60000610, 1210.81738281, 39.77999878, 0.00000000
1, 0.5899, 59, 0.00969664, -0.94961327, -0.30163926, -0.98703146, 0.03788151, 0.23178510, 15.73299980, -62.18843079, 43.95470810, -1.26677752, -0.54815102, -0.87883699, 0.99989766, 0.01109072, 0.00469829, 0.00772154, -0.01926589, 0.97162539, -0.69807267, 87.60000610, 1210.81738281, 39.77999878, 0.00000000
1, 0.5999, 60, 0.01019007, -0.95124596, -0.30204558, -1.12814534, 0.02218219, 0.07368201, 15.44048595, -62.14445114, 43.68825912, -1.27803779, -0.54877454, -0.87819320, 0.99989665, 0.01118899, 0.00470303, 0.00771645, -0.01976673, 0.97347355, -0.69766146, 87.60000610, 1210.81738281, 39.77999878, 0.00000000
1, 0.6099, 61, 0.00939702, -0.95633543, -0.30489066, -1.03817487, -0.01141992, 0.07270031, 15.44048595, -62.14445114, 43.68825912, -1.28842533, -0.54950237, -0.87787670, 0.99989557, 0.01127967, 0.00470872, 0.00771418, -0.01898331, 0.97875732, -0.69481212, 87.60000610, 1210.81738281, 39.77999878, 0.00000000
1, 0.6199, 62, 0.00827928, -0.95871776, -0.30368918, -0.69565368, -0.12795664, 0.01646729, 15.11140537, -61.00099564, 43.07923508, -1.29539454, -0.55003989, -0.87890333, 0.99989474, 0.01134055, 0.00471283, 0.00772348, -0.01787718, 0.98128241, -0.69601017, 87.60000610, 1210.81738281, 39.77999878, 0.00000000
1, 0.6299, 63, 0.00883195, -0.96265548, -0.30678824, -0.66050166, -0.07650349, 0.03501977, 15.14796638, -61.00099564, 43.34568787, -1.30201411, -0.55060494, -0.87938827, 0.99989414, 0.01139838, 0.00471727, 0.00772804, -0.01844016, 0.98532939, -0.69290853, 87.60000610, 1210.81738281, 39.77999878, 0.00000000
1, 0.6399, 64, 0.00786875, -0.96242607, -0.30676633, -0.39140448, -0.19560881, 0.10200558, 15.25766277, -61.92455292, 44.16406250, -1.30659783, -0.54521000, -0.91001010, 0.99989176, 0.01143926, 0.00466683, 0.00799489, -0.01746523, 0.98520505, -0.69292808, 87.60000610, 1210.81738281, 39.77999878, 0.00000000
1, 0.6499, 65, 0.00825423, -0.95959085, -0.30640337, 0.10750561, -0.00470842, 0.20996226, 15.25766277, -63.06801224, 43.93567276, -1.30551147, -0.54721719, -0.90945280, 0.99989182, 0.01142989, 0.00468448, 0.00799018, -0.01779641, 0.98239142, -0.69329119, 87.60000610, 1210.81738281, 39.77999878, 0.00000000
1, 0.6599, 66, 0.00551431, -0.95727760, -0.30875507, 0.35351485, 0.44208708, 0.28891608, 15.25766277, -63.06801224, 43.93567276, -1.30193222, -0.54863799, -0.90442932, 0.99989247, 0.01139855, 0.00469762, 0.00794634, -0.01508232, 0.98002023, -0.69094050, 87.60000610, 1210.81738281, 39.77999878, 0.00000000
1, 0.6699, 67, 0.00732991, -0.95617115, -0.30958882, 0.46011287, 0.63247132, 0.23985760, 14.41668034, -60.86905289, 43.70729446, -1.29726160, -0.54900831, -0.89776647, 0.99989343, 0.01135755, 0.00470184, 0.00788805, -0.01690763, 0.97884488, -0.69010818, 87.60000610, 1210.81738281, 39.77999878, 0.00000000
1, 0.6799, 68, 0.00758793, -0.95602214, -0.31109262, 0.80830204, -0.48293793, 0.40870339, 14.23385715, -61.22089005, 43.76438904, -1.28921437, -0.55436683, -0.90128934, 0.99989372, 0.01128784, 0.00474880, 0.00791898, -0.01722250, 0.97857165, -0.68860674, 87.60000610, 1210.81738281, 39.77999878, 0.00000000
1, 0.6899, 69, 0.00910568, -0.95382637, -0.31167567, 0.74072975, -1.15475106, 0.53541267, 15.18453217, -61.83659363, 43.78342438, -1.29441047, -0.55791557, -0.93886316, 0.99989039, 0.01133499, 0.00477569, 0.00824741, -0.01884956, 0.97630286, -0.68802422, 87.60000610, 1210.81738281, 39.77999878, 0.00000000
1, 0.6999, 70, 0.01056688, -0.94913226, -0.31024146, 0.61779529, -1.41274095, 0.51278651, 14.45324135, -63.81566238, 43.51697159, -1.28835106, -0.56707925, -0.95090067, 0.99988973, 0.01128328, 0.00485490, 0.00835309, -0.02040144, 0.97164476, -0.68945682, 87.60000610, 1210.81738281, 39.77999878, 0.00000000
1, 0.7099, 71, 0.00937174, -0.94783145, -0.30676836, -0.11794303, -1.08974099, 0.34604532, 14.45324135, -63.81566238, 43.51697159, -1.28963149, -0.57367814, -0.96020639, 0.99988854, 0.01129533, 0.00491147, 0.00843498, -0.01934985, 0.97031951, -0.69292897, 87.60000610, 1210.81738281, 39.77999878, 0.00000000
1, 0.7199, 72, 0.00489847, -0.94868344, -0.30322340, -0.56804776, -0.43658137, 0.06232329, 14.81888676, -61.26486588, 43.65019608, -1.29534090, -0.57558918, -0.96407425, 0.99988770, 0.01134545, 0.00492734, 0.00846917, -0.01494088, 0.97125095, -0.69647145, 87.60000610, 1210.81738281, 39.77999878, 0.00000000
1, 0.7299, 73, 0.00058248, -0.94824630, -0.30600584, -0.38976586, 0.13573830, -0.22502117, 14.81888676, -62.05649185, 43.49793625, -1.29922640, -0.57303506, -0.96337676, 0.99988747, 0.01137914, 0.00490484, 0.00846300, -0.01060627, 0.97089601, -0.69368738, 87.60000610, 1210.81738281, 39.77999878, 0.00000000
1, 0.7399, 74, 0.00223315, -0.95005858, -0.30750844, -0.18584196, -0.21891068, -0.47919750, 14.89201736, -61.83659363, 43.63116455, -1.31600273, -0.57857531, -0.99594128, 0.99988306, 0.01152733, 0.00494867, 0.00874841, -0.01223173, 0.97281492, -0.69218266, 87.60000610, 1210.81738281, 39.77999878, 0.00000000
1, 0.7499, 75, 0.01081820, -0.95002675, -0.30538371, 0.03712244, -1.42164171, -0.27664772, 14.89201736, -63.06801224, 43.65019608, -1.31576383, -0.58024633, -1.01032305, 0.99988192, 0.01152600, 0.00496182, 0.00887406, -0.02092376, 0.97299224, -0.69430149, 87.60000610, 1210.81738281, 39.77999878, 0.00000000
1, 0.7599, 76, 0.01842625, -0.94771510, -0.30177644, 0.79972029, -2.91289520, -0.01150163, 14.81888676, -62.98005676, 43.95470810, -1.30803251, -0.58897245, -1.03827286, 0.99988014, 0.01146043, 0.00503576, 0.00911847, -0.02864315, 0.97060573, -0.69790924, 87.60000610, 1210.81738281, 39.77999878, 0.00000000
1, 0.7699, 77, 0.02213468, -0.94743490, -0.29074961, 1.11878085, -2.88006902, 0.23430853, 14.81888676, -62.98005676, 43.95470810, -1.29709113, -0.59993118, -1.06522787, 0.99987847, 0.01136703, 0.00512958, 0.00935426, -0.03253355, 0.97013760, -0.70893860, 87.60000610, 1210.81738281, 39.77999878, 0.00000000
1, 0.7799, 78, 0.02390572, -0.95277673, -0.29258388, -0.18815041, -1.66064346, 0.59793228, 14.74575996, -62.32036591, 43.32665253, -1.29911196, -0.61065245, -1.07921278, 0.99987674, 0.01138616, 0.00522158, 0.00947744, -0.03449905, 0.97540712, -0.70710385, 87.60000610, 1210.81738281, 39.77999878, 0.00000000
1, 0.7899, 79, 0.01934783, -0.96850401, -0.29517713, -1.25375867, -0.53370887, 0.43152398, 14.48980618, -60.73711777, 43.25052261, -1.28065491, -0.59297061, -1.11381483, 0.99987638, 0.01122520, 0.00506543, 0.00977680, -0.02997805, 0.99117869, -0.70450920, 87.60000610, 1210.81738281, 39.77999878, 0.00000000
1, 0.7999, 80, 0.01373983, -0.98578584, -0.29877758, -0.71457678, 0.06144283, -0.03222787, 14.52637196, -61.22089005, 43.15536499, -1.28780770, -0.59248137, -1.11317611, 0.99987578, 0.01128754, 0.00506061, 0.00977150, -0.02409082, 1.00823522, -0.70091683, 87.60000610, 1210.81738281, 39.77999878, 0.00000000
1, 0.8099, 81, 0.01031532, -0.99922186, -0.30060357, 0.90377665, -1.28650939, -0.78622943, 15.36735439, -62.14445114, 43.84051895, -1.27891147, -0.58887893, -1.12799561, 0.99987555, 0.01121027, 0.00502849, 0.00990006, -0.02061968, 1.02161276, -0.69909263, 87.60000610, 1210.81738281, 39.77999878, 0.00000000
1, 0.8199, 82, 0.01439784, -1.00264919, -0.29393756, 1.40641117, -2.90792584, -1.08553040, 15.36735439, -62.14445114, 43.84051895, -1.26512146, -0.58731538, -1.15927267, 0.99987423, 0.01109118, 0.00501301, 0.01017222, -0.02465134, 1.02481234, -0.70576423, 87.60000610, 1210.81738281, 39.77999878, 0.00000000
1, 0.8299, 83, 0.01853459, -0.99370438, -0.29475129, 0.43265924, -4.33991718, -1.07750010, 15.14796638, -62.71617889, 43.66922760, -1.26120305, -0.59015644, -1.20398438, 0.99987042, 0.01105920, 0.00503383, 0.01056245, -0.02880643, 1.01571918, -0.70495361, 87.60000610, 1210.81738281, 39.77999878, 0.00000000
1, 0.8399, 84, 0.01880454, -0.97862679, -0.30350158, 0.11706887, -4.64604139, -1.39937997, 15.58674240, -62.58424377, 43.44084167, -1.25951827, -0.58140528, -1.28002632, 0.99986374, 0.01104699, 0.00495030, 0.01122504, -0.02908122, 1.00062370, -0.69620371, 87.60000610, 1210.81738281, 39.77999878, 0.00000000
1, 0.8499, 85, 0.01571501, -0.96718323, -0.30714551, -0.32347131, -4.93513870, -1.77325439, 15.00170898, -62.10047150, 43.36471558, -1.26325321, -0.57940549, -1.33234608, 0.99985832, 0.01108164, 0.00492743, 0.01168153, -0.02584193, 0.98918903, -0.69256103, 87.60000610, 1210.81738281, 39.77999878, 0.00000000
1, 0.8599, 86, 0.01217427, -0.96172655, -0.30849886, -1.08392978, -5.67417240, -2.06771779, 15.11140537, -61.61669922, 43.53600693, -1.27465808, -0.57683980, -1.39245689, 0.99985099, 0.01118346, 0.00489801, 0.01220626, -0.02225862, 0.98389184, -0.69120455, 87.60000610, 1210.81738281, 39.77999878, 0.00000000
1, 0.8699, 87, 0.00935611, -0.96611840, -0.31105337, -1.17096376, -6.07053566, -2.00547099, 15.11140537, -61.61669922, 43.53600693, -1.28697515, -0.57607740, -1.45614374, 0.99984294, 0.01129356, 0.00488377, 0.01276240, -0.01941171, 0.98850065, -0.68864560, 87.60000610, 1210.81738281, 39.77999878, 0.00000000
1, 0.8799, 88, 0.00837779, -0.97356856, -0.31320971, -1.45517468, -6.50303745, -1.92580271, 14.96514320, -63.37586975, 43.65019608, -1.30217242, -0.57739514, -1.52366388, 0.99983358, 0.01142919, 0.00488684, 0.01335230, -0.01844620, 0.99618065, -0.68648386, 87.60000610, 1210.81738281, 39.77999878, 0.00000000
1, 0.8899, 89, 0.00521491, -0.97558349, -0.31602788, -2.10681677, -6.13389444, -1.72268665, 15.33078861, -62.67220306, 43.51697159, -1.32653606, -0.57852983, -1.61367202, 0.99982035, 0.01164574, 0.00488476, 0.01413879, -0.01531304, 0.99855161, -0.68365729, 87.60000610, 1210.81738281, 39.77999878, 0.00000000
1, 0.8999, 90, -0.00194642, -0.96772277, -0.31460363, -1.97637129, -4.57043314, -1.77810752, 15.22109699, -60.51721954, 42.92698288, -1.34675062, -0.57542706, -1.66222215, 0.99981230, 0.01182379, 0.00485018, 0.01456293, -0.00812465, 0.99109954, -0.68507236, 87.60000610, 1210.81738281, 39.77999878, 0.00000000
1, 0.9099, 91, -0.01031410, -0.95711726, -0.31834197, -1.82732022, -2.91934896, -1.93721282, 15.44048595, -63.50780487, 42.64150238, -1.36535597, -0.56582940, -1.69555235, 0.99980652, 0.01198630, 0.00476059, 0.01485354, 0.00036669, 0.98082089, -0.68132752, 87.60000610, 1210.81738281, 39.77999878, 0.00000000
1, 0.9199, 92, -0.01327675, -0.94525796, -0.32311994, -2.05518866, -1.63572574, -1.83921599, 15.44048595, -63.50780487, 42.64150238, -1.38610423, -0.55326229, -1.71632493, 0.99980223, 0.01216655, 0.00464605, 0.01503432, 0.00353973, 0.96931118, -0.67654335, 87.60000610, 1210.81738281, 39.77999878, 0.00000000
1, 0.9299, 93, -0.01439394, -0.93361688, -0.32978699, -1.67058790, -1.48828495, -1.22205210, 15.69643497, -60.78109741, 42.83182144, -1.40298724, -0.54615062, -1.73389709, 0.99979842, 0.01231363, 0.00457990, 0.01518756, 0.00483055, 0.95799685, -0.66987002, 87.60000610, 1210.81738281, 39.77999878, 0.00000000
1, 0.9399, 94, -0.01298976, -0.92324555, -0.32489744, -1.32538068, -1.51867080, -0.23936188, 15.51361179, -61.39680099, 43.45987701, -1.45818615, -0.57379436, -1.77695549, 0.99978530, 0.01280067, 0.00480896, 0.01556849, 0.00333504, 0.94806367, -0.67474782, 87.60000610, 1210.81738281, 39.77999878, 0.00000000
1, 0.9499, 95, -0.01082447, -0.92025000, -0.31940630, -0.80290526, -1.37669516, 0.78156614, 15.11140537, -62.67220306, 43.13633347, -1.46631980, -0.58543658, -1.78751802, 0.99978238, 0.01287366, 0.00490824, 0.01566228, 0.00069306, 0.94579136, -0.68021619, 87.60000610, 1210.81738281, 39.77999878, 0.00000000
1, 0.9599, 96, -0.00556788, -0.92250681, -0.31831890, -0.50400764, -1.50268304, 1.28777373, 15.14796638, -62.05649185, 42.94601059, -1.47146606, -0.60228527, -1.79780519, 0.99977970, 0.01292130, 0.00505338, 0.01575413, -0.00482428, 0.94815153, -0.68129820, 87.60000610, 1210.81738281, 39.77999878, 0.00000000
1, 0.9699, 97, 0.00081900, -0.92723221, -0.31819072, -1.51766479, -0.84561479, 1.55078578, 15.14796638, -62.05649185, 42.94601059, -1.48668718, -0.61962032, -1.80081141, 0.99977672, 0.01305660, 0.00520219, 0.01578298, -0.01152433, 0.95306635, -0.68141818, 87.60000610, 1210.81738281, 39.77999878, 0.00000000
1, 0.9799, 98, 0.00407322, -0.93671358, -0.32299227, -2.42287993, 0.47212613, 1.33516312, 14.70919418, -61.30884552, 43.00310516, -1.51085091, -0.63087970, -1.79177332, 0.99977458, 0.01326854, 0.00529814, 0.01570651, -0.01501538, 0.96290606, -0.67660475, 87.60000610, 1210.81738281, 39.77999878, 0.00000000
1, 0.9899, 99, 0.00403176, -0.94651926, -0.32177073, -3.15916204, 1.12389421, 0.99955261, 15.00170898, -62.27638626, 43.19342804, -1.55304420, -0.63594848, -1.80550373, 0.99976748, 0.01363799, 0.00533495, 0.01582885, -0.01511271, 0.97326815, -0.67781007, 87.60000610, 1210.81738281, 39.77999878, 0.00000000
1, 0.9999, 100, 0.00441579, -0.96101934, -0.31820908, -3.87673116, 1.69003940, 0.66208458, 14.89201736, -62.14445114, 43.07923508, -1.59166408, -0.63703561, -1.78663194, 0.99976540, 0.01397420, 0.00534140, 0.01566613, -0.01553574, 0.98853838, -0.68135035, 87.60000610, 1210.81738281, 39.77999878, 0.00000000
1, 1.0099, 101, 0.00203099, -0.96980828, -0.31989807, -3.53133774, 1.71559620, 0.30999884, 14.85545158, -62.10047150, 42.83182144, -1.62683368, -0.63468295, -1.76867378, 0.99976361, 0.01427989, 0.00531830, 0.01551080, -0.01312796, 0.99797726, -0.67964351, 87.60000610, 1210.81738281, 39.77999878, 0.00000000
1, 1.0199, 102, -0.00227252, -0.97519022, -0.31699911, -2.73550463, 1.64318621, -0.13341638, 14.85545158, -62.10047150, 42.94601059, -1.65404868, -0.62832570, -1.75292730, 0.99976265, 0.01451575, 0.00526115, 0.01537389, -0.00874839, 1.00388145, -0.68252850, 87.60000610, 1210.81738281, 39.77999878, 0.00000000
1, 1.0299, 103, -0.00508329, -0.97547340, -0.31712416, -2.21245503, 1.52948916, -0.27803361, 15.11140537, -62.80414200, 42.94601059, -1.67605126, -0.62094551, -1.73881805, 0.99976206, 0.01470609, 0.00519562, 0.01525086, -0.00580368, 1.00458121, -0.68239284, 87.60000610, 1210.81738281, 39.77999878, 0.00000000
1, 1.0399, 104, -0.00655228, -0.97291261, -0.31653726, -1.43686080, 0.79539043, -0.13763560, 15.29422855, -61.17690277, 42.86988068, -1.68635070, -0.64965719, -1.76269996, 0.99975616, 0.01480087, 0.00544166, 0.01546335, -0.00437678, 1.00230706, -0.68297088, 87.60000610, 1210.81738281, 39.77999878, 0.00000000
1, 1.0499, 105, -0.00301568, -0.96538055, -0.31330621, -0.71793926, 0.16149396, 0.14566895, 14.81888676, -61.17690277, 43.00310516, -1.69350839, -0.65053421, -1.76059163, 0.99975538, 0.01486333, 0.00544862, 0.01544541, -0.00832457, 0.99489415, -0.68619382, 87.60000610, 1210.81738281, 39.77999878, 0.00000000
1, 1.0599, 106, 0.00237058, -0.95881206, -0.31107730, -0.55456245, -0.70175564, 0.54889971, 14.89201736, -62.40832901, 43.25052261, -1.69909048, -0.65791547, -1.76545668, 0.99975371, 0.01491325, 0.00551163, 0.01548907, -0.01378754, 0.98841959, -0.68841910, 87.60000610, 1210.81738281, 39.77999878, 0.00000000
1, 1.0699, 107, 0.00551925, -0.95682889, -0.31016716, -0.60718304, -1.34227479, 0.86958247, 14.81888676, -63.06801224, 43.42181396, -1.70526326, -0.67033333, -1.77541184, 0.99975085, 0.01496925, 0.00561784, 0.01557782, -0.01713311, 0.98654455, -0.68932378, 87.60000610, 1210.81738281, 39.77999878, 0.00000000
1, 1.0799, 108, 0.00683110, -0.95303708, -0.30769497, -1.02083814, -1.39897478, 0.99270433, 14.81888676, -63.06801224, 43.42181396, -1.71556282, -0.68409061, -1.78544140, 0.99974740, 0.01506146, 0.00573514, 0.01566762, -0.01868021, 0.98289704, -0.69178897, 87.60000610, 1210.81738281, 39.77999878, 0.00000000
1, 1.0899, 109, 0.00679264, -0.95387262, -0.30890134, -1.73675835, -0.98691797, 0.63441354, 14.96514320, -62.89209366, 43.04117203, -1.72934449, -0.69098252, -1.82206607, 0.99974018, 0.01518448, 0.00578854, 0.01598874, -0.01882566, 0.98397720, -0.69057298, 87.60000610, 1210.81738281, 39.77999878, 0.00000000
1, 1.0999, 110, 0.00746447, -0.95378524, -0.30800110, -1.80715847, -0.62182814, 0.30831650, 14.70919418, -61.08895111, 43.25052261, -1.74744725, -0.69583470, -1.82667053, 0.99973679, 0.01534332, 0.00582772, 0.01603046, -0.01957620, 0.98416352, -0.69146395, 87.60000610, 1210.81738281, 39.77999878, 0.00000000
1, 1.1099, 111, 0.00450097, -0.95353335, -0.30935469, -1.18587387, 0.10379886, 0.30409253, 15.18453217, -61.48476028, 42.56536865, -1.75929964, -0.69840252, -1.82449508, 0.99973541, 0.01544697, 0.00584876, 0.01601243, -0.01667723, 0.98416209, -0.69010192, 87.60000610, 1210.81738281, 39.77999878, 0.00000000
1, 1.1199, 112, 0.00419193, -0.95190990, -0.31605393, -1.13692808, 0.87867451, 0.16202888, 15.11140537, -63.19995117, 43.06019974, -1.77059102, -0.69720483, -1.81541920, 0.99973518, 0.01554485, 0.00583797, 0.01593366, -0.01636773, 0.98272401, -0.68339705, 87.60000610, 1210.81738281, 39.77999878, 0.00000000
1, 1.1299, 113, 0.00395222, -0.95045507, -0.31967682, -1.62427592, 1.25252354, 0.15380149, 15.11140537, -63.19995117, 43.06019974, -1.78674388, -0.69476187, -1.80272019, 0.99973488, 0.01568479, 0.00581615, 0.01582336, -0.01609685, 0.98151964, -0.67976683, 87.60000610, 1210.81738281, 39.77999878, 0.00000000
1, 1.1399, 114, 0.00000543, -0.95284611, -0.32059857, -1.82367325, 1.35246003, 0.24440418, 14.81888676, -62.18843079, 42.88891602, -1.81443465, -0.70015037, -1.81808555, 0.99972868, 0.01592790, 0.00585720, 0.01595956, -0.01214457, 0.98426628, -0.67883396, 87.60000610, 1210.81738281, 39.77999878, 0.00000000
1, 1.1499, 115, -0.00265015, -0.95686585, -0.31748724, -1.64553726, 1.45649683, 0.26362467, 14.45324135, -61.13293076, 43.06019974, -1.83077884, -0.69811302, -1.80310094, 0.99972856, 0.01606944, 0.00583925, 0.01582938, -0.00954524, 0.98870695, -0.68193126, 87.60000610, 1210.81738281, 39.77999878, 0.00000000
1, 1.1599, 116, -0.00475278, -0.96041411, -0.31476647, -1.91796505, 1.77971613, 0.30641016, 14.48980618, -61.44078064, 42.92698288, -1.84981751, -0.69545460, -1.78486598, 0.99972850, 0.01623425, 0.00581601, 0.01567090, -0.00740322, 0.99256861, -0.68464249, 87.60000610, 1210.81738281, 39.77999878, 0.00000000
1, 1.1699, 117, -0.00701373, -0.95972955, -0.31583241, -1.83305991, 2.08687711, 0.45323443, 14.81888676, -61.57272339, 43.17439651, -1.86799896, -0.69324034, -1.76326478, 0.99972898, 0.01639148, 0.00579729, 0.01548305, -0.00509960, 0.99220467, -0.68356669, 87.60000610, 1210.81738281, 39.77999878, 0.00000000
1, 1.1799, 118, -0.00513792, -0.95878220, -0.31617436, -1.75002468, 2.35715342, 0.75749391, 14.81888676, -61.57272339, 43.17439651, -1.88531280, -0.69306356, -1.73816895, 0.99972987, 0.01654124, 0.00579704, 0.01526496, -0.00695341, 0.99157321, -0.68321478, 87.60000610, 1210.81738281, 39.77999878, 0.00000000
1, 1.1899, 119, -0.00030945, -0.95458227, -0.31310695, -1.23492444, 2.14737701, 1.24370003, 15.14796638, -62.49628448, 42.88891602, -1.89758670, -0.70099282, -1.74279380, 0.99972701, 0.01664960, 0.00586391, 0.01530707, -0.01184772, 0.98761702, -0.68627328, 87.60000610, 1210.81738281, 39.77999878, 0.00000000
1, 1.1999, 120, 0.00351106, -0.94936335, -0.30985865, -0.88376689, 2.54011965, 1.53213549, 14.92858315, -61.96853638, 43.07923508, -1.90623522, -0.70760423, -1.71371388, 0.99972928, 0.01672442, 0.00592468, 0.01505476, -0.01581801, 0.98257554, -0.68951386, 87.60000610, 1210.81738281, 39.77999878, 0.00000000
1, 1.2099, 121, 0.00586524, -0.95017624, -0.31223872, -1.07410192, 3.47924972, 1.72824502, 15.00170898, -61.74863815, 42.73666000, -1.91671348, -0.71312135, -1.67505109, 0.99973249, 0.01681454, 0.00597711, 0.01471880, -0.01828292, 0.98354048, -0.68712735, 87.60000610, 1210.81738281, 39.77999878, 0.00000000
1, 1.2199, 122, 0.00339960, -0.95607805, -0.31341562, -1.85123146, 4.73165703, 1.37023044, 14.48980618, -62.05649185, 43.28859329, -1.93486643, -0.71130216, -1.62547553, 0.99973619, 0.01697010, 0.00596624, 0.01428697, -0.01583490, 0.98971230, -0.68594122, 87.60000610, 1210.81738281, 39.77999878, 0.00000000
1, 1.2299, 123, 0.00047781, -0.96442950, -0.31827652, -1.72436285, 4.90760708, 1.16260171, 14.48980618, -62.05649185, 43.28859329, -1.95175385, -0.70694852, -1.57489824, 0.99974012, 0.01711428, 0.00593371, 0.01384595, -0.01283823, 0.99838638, -0.68107033, 87.60000610, 1210.81738281, 39.77999878, 0.00000000
1, 1.2399, 124, 0.00324600, -0.96911585, -0.32212594, -1.19660413, 4.08864117, 1.12619078, 15.33078861, -62.27638626, 43.63116455, -1.96636963, -0.70247096, -1.56075990, 0.99973989, 0.01724053, 0.00589501, 0.01372269, -0.01554594, 1.00330722, -0.67721367, 87.60000610, 1210.81738281, 39.77999878, 0.00000000
1, 1.2499, 125, 0.00588117, -0.96648902, -0.32389367, -1.28277063, 3.62395334, 1.16941988, 14.48980618, -61.79261780, 43.40278244, -1.97891676, -0.70218676, -1.52244878, 0.99974251, 0.01734799, 0.00589683, 0.01338905, -0.01813957, 1.00093114, -0.67543781, 87.60000610, 1210.81738281, 39.77999878, 0.00000000
1, 1.2599, 126, 0.00831865, -0.95903969, -0.32227522, -1.54933047, 3.32995892, 1.18163300, 15.55017757, -62.32036591, 43.38374710, -1.99415791, -0.70293480, -1.48681962, 0.99974424, 0.01747921, 0.00590701, 0.01307911, -0.02057791, 0.99372780, -0.67704785, 87.60000610, 1210.81738281, 39.77999878, 0.00000000
1, 1.2699, 127, 0.00944492, -0.95301718, -0.32031208, -1.77002192, 3.52980614, 1.45018446, 14.41668034, -62.27638626, 43.32665253, -2.01157808, -0.70559019, -1.44840467, 0.99974579, 0.01762950, 0.00593410, 0.01274526, -0.02173845, 0.98800361, -0.67900008, 87.60000610, 1210.81738281, 39.77999878, 0.00000000
1, 1.2799, 128, 0.00674221, -0.94826031, -0.31701526, -1.19907820, 3.92968202, 1.40410924, 14.41668034, -62.27638626, 43.32665253, -2.02326155, -0.70654601, -1.40645242, 0.99974853, 0.01772936, 0.00594763, 0.01238001, -0.01906609, 0.98349583, -0.68228769, 87.60000610, 1210.81738281, 39.77999878, 0.00000000
1, 1.2899, 129, 0.00535444, -0.94965309, -0.31500968, -0.92489409, 3.27912641, 1.44232798, 15.00170898, -61.39680099, 43.91664886, -2.03103590, -0.70739692, -1.40006137, 0.99974799, 0.01779695, 0.00595520, 0.01232478, -0.01771301, 0.98505026, -0.68428719, 87.60000610, 1210.81738281, 39.77999878, 0.00000000
1, 1.2999, 130, 0.00489907, -0.95049077, -0.31449762, -0.79427040, 2.80069375, 1.37913501, 14.63606358, -62.98005676, 43.68825912, -2.03877020, -0.71166462, -1.36898434, 0.99974984, 0.01786325, 0.00599645, 0.01205471, -0.01729161, 0.98600852, -0.68479466, 87.60000610, 1210.81738281, 39.77999878, 0.00000000
1, 1.3099, 131, 0.00759358, -0.95066613, -0.31440789, -0.83918464, 2.25596762, 1.08656740, 14.05103493, -61.39680099, 43.57406616, -2.04698873, -0.71486068, -1.34398937, 0.99975097, 0.01793397, 0.00602738, 0.01183757, -0.02004981, 0.98632759, -0.68487835, 87.60000610, 1210.81738281, 39.77999878, 0.00000000
1, 1.3199, 132, 0.00740394, -0.94750154, -0.31617188, -1.05086112, 2.08504415, 0.94299519, 14.74575996, -62.10047150, 43.36471558, -2.05733514, -0.71723431, -1.32102835, 0.99975163, 0.01802326, 0.00605063, 0.01163816, -0.01990325, 0.98332709, -0.68310797, 87.60000610, 1210.81738281, 39.77999878, 0.00000000
1, 1.3299, 133, 0.00593273, -0.94769013, -0.32114300, -1.73072445, 2.34157443, 0.66921568, 15.03827477, -63.24393463, 43.53600693, -2.07446766, -0.71618211, -1.29637635, 0.99975139, 0.01817133, 0.00604362, 0.01142383, -0.01844464, 0.98376626, -0.67812771, 87.60000610, 1210.81738281, 39.77999878, 0.00000000
1, 1.3399, 134, 0.00368712, -0.94747877, -0.32313520, -2.12435675, 2.51287246, 0.49823841, 15.03827477, -63.24393463, 43.53600693, -2.10272932, -0.71465778, -1.29904461, 0.99974668, 0.01841789, 0.00602707, 0.01144835, -0.01615819, 0.98393816, -0.67612219, 87.60000610, 1210.81738281, 39.77999878, 0.00000000
1, 1.3499, 135, 0.00269941, -0.94714355, -0.32406664, -1.70775402, 2.43435597, 0.24921666, 14.70919418, -63.19995117, 43.49793625, -2.11963034, -0.70931143, -1.27483594, 0.99974662, 0.01856355, 0.00598266, 0.01123717, -0.01511269, 0.98402721, -0.67517579, 87.60000610, 1210.81738281, 39.77999878, 0.00000000
1, 1.3599, 136, 0.00241915, -0.94998056, -0.32224393, -1.14694500, 1.92442071, 0.21920164, 14.30698395, -61.30884552, 43.26955795, -2.13097596, -0.70529401, -1.25565505, 0.99974692, 0.01866116, 0.00594963, 0.01106978, -0.01475378, 0.98709500, -0.67699099, 87.60000610, 1210.81738281, 39.77999878, 0.00000000
1, 1.3699, 137, 0.00471652, -0.95140761, -0.32044449, -0.85991597, 1.80545604, 0.28613552, 14.81888676, -62.36434555, 43.44084167, -2.13944912, -0.70229155, -1.23746359, 0.99974746, 0.01873386, 0.00592559, 0.01091102, -0.01698962, 0.98868608, -0.67878503, 87.60000610, 1210.81738281, 39.77999878, 0.00000000
1, 1.3799, 138, 0.00350228, -0.95336378, -0.32324094, -0.73888409, 1.92249846, 0.53432208, 14.96514320, -63.15597153, 43.44084167, -2.14668798, -0.70125872, -1.21739173, 0.99974823, 0.01879588, 0.00591918, 0.01073611, -0.01574533, 0.99076998, -0.67598414, 87.60000610, 1210.81738281, 39.77999878, 0.00000000
1, 1.3899, 139, 0.00383601, -0.95464134, -0.33100012, -0.92357737, 2.29616046, 0.68336952, 14.96514320, -63.15597153, 43.44084167, -2.16930127, -0.69955975, -1.22158706, 0.99974418, 0.01899323, 0.00590154, 0.01077360, -0.01606113, 0.99225044, -0.66821766, 87.60000610, 1210.81738281, 39.77999878, 0.00000000
1, 1.3999, 140, 0.00635392, -0.95898640, -0.33152682, -1.26470852, 2.20629072, 0.77041548, 14.78232574, -61.70465851, 43.59310150, -2.18177581, -0.69985229, -1.19796848, 0.99974430, 0.01910087, 0.00590686, 0.01056823, -0.01856857, 0.99696994, -0.66767681, 87.60000610, 1210.81738281, 39.77999878, 0.00000000
1, 1.4099, 141, 0.00687427, -0.96273404, -0.33117878, -0.92283976, 1.81158435, 0.93685430, 15.00170898, -62.23241043, 43.66922760, -2.19085789, -0.70298278, -1.17762244, 0.99974447, 0.01917933, 0.00593674, 0.01039171, -0.01912304, 1.00090790, -0.66801727, 87.60000610, 1210.81738281, 39.77999878, 0.00000000
1, 1.4199, 142, 0.00482638, -0.96041113, -0.32758456, -0.20276441, 1.50846183, 0.92827815, 15.00170898, -62.27638626, 43.89761353, -2.19276595, -0.70699120, -1.16033852, 0.99974549, 0.01919543, 0.00597443, 0.01024169, -0.01713350, 0.99866050, -0.67160785, 87.60000610, 1210.81738281, 39.77999878, 0.00000000
1, 1.4299, 143, 0.00188560, -0.95466226, -0.32360634, -0.61356294, 1.54182386, 0.78961021, 13.90477753, -61.48476028, 43.26955795, -2.19878387, -0.70957923, -1.14308810, 0.99974585, 0.01924726, 0.00599937, 0.01009193, -0.01425669, 0.99298155, -0.67558259, 87.60000610, 1210.81738281, 39.77999878, 0.00000000
1, 1.4399, 144, 0.00083140, -0.94970822, -0.32164395, -0.77557725, 1.85188663, 0.63841969, 13.90477753, -61.48476028, 43.26955795, -2.21011257, -0.71330571, -1.15379751, 0.99974275, 0.01934698, 0.00602908, 0.01018658, -0.01323649, 0.98817110, -0.67753905, 87.60000610, 1210.81738281, 39.77999878, 0.00000000
1, 1.4499, 145, 0.00124091, -0.94663441, -0.32090977, -0.66346639, 1.84073591, 0.32143274, 14.27041817, -62.45230865, 43.13633347, -2.21661139, -0.71048957, -1.13519216, 0.99974346, 0.01940246, 0.00600708, 0.01002413, -0.01366470, 0.98526645, -0.67826653, 87.60000610, 1210.81738281, 39.77999878, 0.00000000
1, 1.4599, 146, 0.00258746, -0.94289786, -0.31877601, -0.49802452, 1.63874793, 0.15847521, 15.00170898, -60.82507324, 43.89761353, -2.22146749, -0.70678318, -1.11905313, 0.99974424, 0.01944367, 0.00597706, 0.00988296, -0.01494712, 0.98162889, -0.68039721, 87.60000610, 1210.81738281, 39.77999878, 0.00000000
1, 1.4699, 147, 0.00772396, -0.94628435, -0.31966722, -0.07589406, 0.63054323, 0.10083064, 14.19729233, -62.23241043, 43.97374344, -2.22217178, -0.70572340, -1.11274302, 0.99974471, 0.01944939, 0.00596882, 0.00982776, -0.02004052, 0.98505425, -0.67950499, 87.60000610, 1210.81738281, 39.77999878, 0.00000000
1, 1.4799, 148, 0.01012964, -0.95047897, -0.31819415, -0.08974154, -0.00625596, 0.21053328, 14.85545158, -63.46382904, 43.74535370, -2.22305393, -0.70773280, -1.11211812, 0.99974459, 0.01945723, 0.00598638, 0.00982270, -0.02246231, 0.98925668, -0.68097764, 87.60000610, 1210.81738281, 39.77999878, 0.00000000
1, 1.4899, 149, 0.01089457, -0.94973063, -0.31854966, -0.19325215, -0.40104073, 0.16739352, 14.85545158, -63.46382904, 43.74535370, -2.23772788, -0.68951929, -1.14469671, 0.99974024, 0.01958538, 0.00582065, 0.01010460, -0.02318956, 0.98859572, -0.68061912, 87.60000610, 1210.81738281, 39.77999878, 0.00000000
1, 1.4999, 150, 0.00946133, -0.95153272, -0.31771672, -0.11866949, -0.31041589, -0.09460404, 14.34354877, -61.52874374, 43.42181396, -2.23893332, -0.68960840, -1.14791930, 0.99973971, 0.01959607, 0.00582077, 0.01013279, -0.02149708, 0.99058688, -0.68144792, 87.60000610, 1210.81738281, 39.77999878, 0.00000000
1, 1.5099, 151, 0.00778723, -0.94923592, -0.31799546, -0.02967436, -0.10244644, -0.17839561, 14.74575996, -60.95701218, 43.40278244, -2.23924088, -0.68824393, -1.14944041, 0.99973965, 0.01959871, 0.00580858, 0.01014584, -0.01981276, 0.98830801, -0.68116862, 87.60000610, 1210.81738281, 39.77999878, 0.00000000
1, 1.5199, 152, 0.00449126, -0.94837296, -0.31777912, 0.25817972, 0.09163710, -0.36855742, 14.48980618, -62.45230865, 43.76438904, -2.23665953, -0.68446118, -1.14980590, 0.99974024, 0.01957588, 0.00577575, 0.01014826, -0.01646208, 0.98741883, -0.68138659, 87.60000610, 1210.81738281, 39.77999878, 0.00000000
1, 1.5299, 153, 0.00116463, -0.94964409, -0.31364006, 0.79746306, -0.02392520, -0.39021540, 15.00170898, -63.90362167, 43.57406616, -2.22869444, -0.68084884, -1.15143168, 0.99974155, 0.01950616, 0.00574466, 0.01016143, -0.01307397, 0.98858321, -0.68553048, 87.60000610, 1210.81738281, 39.77999878, 0.00000000
1, 1.5399, 154, -0.00030247, -0.94881082, -0.31371164, 1.33536148, -0.17579886, -0.28958443, 15.00170898, -63.90362167, 43.57406616, -2.21021533, -0.68611354, -1.18427086, 0.99974149, 0.01934705, 0.00578668, 0.01044789, -0.01158441, 0.98753637, -0.68546748, 87.60000610, 1210.81738281, 39.77999878, 0.00000000
1, 1.5499, 155, 0.00623035, -0.95151043, -0.31630573, 1.24432850, -0.69824934, 0.13916795, 14.63606358, -63.06801224, 43.65019608, -2.19783092, -0.68966287, -1.19070363, 0.99974287, 0.01923965, 0.00581770, 0.01050398, -0.01823287, 0.98992562, -0.68288404, 87.60000610, 1210.81738281, 39.77999878, 0.00000000
1, 1.5599, 156, 0.00794947, -0.95522881, -0.31868276, 0.32359967, -0.69543517, 0.58150208, 14.70919418, -63.28790665, 43.91664886, -2.19464493, -0.69739306, -1.19552433, 0.99974251, 0.01921280, 0.00588463, 0.01054716, -0.02006808, 0.99352944, -0.68051004, 87.60000610, 1210.81738281, 39.77999878, 0.00000000
1, 1.5699, 157, 0.00497248, -0.95688546, -0.31491187, 1.08200097, -1.13406587, 0.48206827, 14.48980618, -62.40832901, 44.63985825, -2.18388939, -0.70557398, -1.20495927, 0.99974298, 0.01912018, 0.00595542, 0.01063028, -0.01723461, 0.99508011, -0.68428326, 87.60000610, 1210.81738281, 39.77999878, 0.00000000
1, 1.5799, 158, 0.00321794, -0.95773667, -0.31081417, 1.80288529, -1.17617166, 0.25045928, 14.23385715, -62.32036591, 43.26955795, -2.16594076, -0.71169013, -1.21566355, 0.99974459, 0.01896471, 0.00600867, 0.01072374, -0.01560260, 0.99564266, -0.68839037, 87.60000610, 1210.81738281, 39.77999878, 0.00000000
1, 1.5899, 159, 0.00061913, -0.95805186, -0.30669108, 0.97588891, -0.54369211, 0.00261222, 14.23385715, -62.32036591, 43.26955795, -2.10153508, -0.74520135, -1.25524092, 0.99974942, 0.01840805, 0.00630071, 0.01107100, -0.01320423, 0.99548185, -0.69252872, 87.60000610, 1210.81738281, 39.77999878, 0.00000000
1, 1.5999, 160, -0.00041734, -0.96093524, -0.31047684, 0.19114102, -0.42350882, -0.37918258, 14.27041817, -62.93607712, 43.91664886, -2.09963655, -0.74293399, -1.26049697, 0.99974936, 0.01839156, 0.00628026, 0.01111639, -0.01255902, 0.99758184, -0.68876719, 87.60000610, 1210.81738281, 39.77999878, 0.00000000
1, 1.6099, 161, 0.00012229, -0.96376765, -0.31409115, 0.88166869, -1.20489800, -0.53834969, 14.41668034, -63.85964203, 44.03083801, -2.09091425, -0.74164128, -1.27379823, 0.99974954, 0.01831607, 0.00626771, 0.01123175, -0.01307057, 1.00032496, -0.68515658, 87.60000610, 1210.81738281, 39.77999878, 0.00000000
1, 1.6199, 162, 0.00473899, -0.96271014, -0.31304854, 1.45851791, -1.56089079, -0.53002077, 14.27041817, -62.84811401, 43.40278244, -2.07642508, -0.74154133, -1.29056430, 0.99975014, 0.01819057, 0.00626559, 0.01137721, -0.01768300, 0.99903286, -0.68620777, 87.60000610, 1210.81738281, 39.77999878, 0.00000000
1, 1.6299, 163, 0.00884039, -0.96573496, -0.31662536, 0.20124924, -1.69453335, -0.30046543, 14.81888676, -62.93607712, 43.17439651, -2.07451773, -0.74403405, -1.30764508, 0.99974865, 0.01817511, 0.00628482, 0.01152653, -0.02180791, 1.00192165, -0.68263555, 87.60000610, 1210.81738281, 39.77999878, 0.00000000
1, 1.6399, 164, 0.01031003, -0.96750987, -0.31874505, -0.25917384, -2.28081226, -0.34653899, 14.81888676, -62.67220306, 43.61213303, -2.07207489, -0.73658127, -1.36011350, 0.99974412, 0.01815591, 0.00621173, 0.01198298, -0.02328816, 1.00372279, -0.68051481, 87.60000610, 1210.81738281, 39.77999878, 0.00000000
1, 1.6499, 165, 0.01080982, -0.96661001, -0.31731778, 1.00328910, -2.85186625, -0.50303411, 14.81888676, -62.67220306, 43.61213303, -2.06223059, -0.74081355, -1.38895714, 0.99974239, 0.01807203, 0.00624514, 0.01223475, -0.02371061, 1.00267839, -0.68194830, 87.60000610, 1210.81738281, 39.77999878, 0.00000000
1, 1.6599, 166, 0.00792283, -0.96144044, -0.31131241, 1.83386922, -3.39342380, -0.56969607, 15.07484055, -63.33188629, 43.80245209, -2.04411721, -0.74611819, -1.42332017, 0.99974120, 0.01791644, 0.00628798, 0.01253438, -0.02091304, 0.99722892, -0.68796259, 87.60000610, 1210.81738281, 39.77999878, 0.00000000
1, 1.6699, 167, 0.00101586, -0.95419103, -0.30955133, 1.25808084, -3.26156306, -0.51242709, 14.63606358, -64.43137360, 43.19342804, -2.03174806, -0.75153041, -1.45614016, 0.99973917, 0.01781092, 0.00633145, 0.01282087, -0.01409978, 0.98970717, -0.68973219, 87.60000610, 1210.81738281, 39.77999878, 0.00000000
1, 1.6799, 168, -0.00783372, -0.94960856, -0.31459960, 0.51706254, -2.25130582, -0.73501652, 14.45324135, -64.03556061, 43.32665253, -2.02673030, -0.75164998, -1.47990763, 0.99973726, 0.01776847, 0.00632937, 0.01302797, -0.00528939, 0.98499817, -0.68468779, 87.60000610, 1210.81738281, 39.77999878, 0.00000000
1, 1.6899, 169, -0.00964965, -0.94927198, -0.31640160, 0.42507708, -1.94268632, -0.76340348, 14.08759975, -61.83659363, 43.11729813, -2.02532864, -0.76913238, -1.53071940, 0.99973059, 0.01776107, 0.00647418, 0.01347387, -0.00353001, 0.98460770, -0.68288696, 87.60000610, 1210.81738281, 39.77999878, 0.00000000
1, 1.6999, 170, -0.00848913, -0.94884413, -0.31537050, 0.85493863, -2.23463202, -0.54233849, 14.08759975, -61.83659363, 43.11729813, -2.01691532, -0.77101928, -1.55380893, 0.99972904, 0.01768919, 0.00648806, 0.01367512, -0.00495036, 0.98409283, -0.68391770, 87.60000610, 1210.81738281, 39.77999878, 0.00000000
1, 1.7099, 171, -0.00368360, -0.95070159, -0.31293139, 0.70899594, -2.44674873, -0.22994189, 14.16072655, -62.27638626, 43.02214050, -2.00996804, -0.77653736, -1.57788527, 0.99972683, 0.01763061, 0.00653333, 0.01388562, -0.00982999, 0.98581576, -0.68636060, 87.60000610, 1210.81738281, 39.77999878, 0.00000000
1, 1.7199, 172, -0.00070455, -0.95208549, -0.31130880, 1.40531456, -2.51417136, 0.03018460, 14.48980618, -63.77168274, 43.44084167, -1.99605668, -0.78473502, -1.60193419, 0.99972552, 0.01751160, 0.00660286, 0.01409587, -0.01293438, 0.98701847, -0.68798780, 87.60000610, 1210.81738281, 39.77999878, 0.00000000
1, 1.7299, 173, 0.00329298, -0.95280504, -0.31422406, 2.21117902, -2.52642584, 0.11535269, 14.92858315, -63.15597153, 43.32665253, -1.97410405, -0.79379040, -1.62597978, 0.99972528, 0.01732257, 0.00668093, 0.01430574, -0.01708966, 0.98739946, -0.68508214, 87.60000610, 1210.81738281, 39.77999878, 0.00000000
1, 1.7399, 174, 0.00615729, -0.95125479, -0.31910461, 2.26661777, -2.43737459, -0.05872783, 14.27041817, -64.16749573, 43.38374710, -1.95937002, -0.79533803, -1.67838240, 0.99972075, 0.01719728, 0.00668840, 0.01476228, -0.02006652, 0.98548579, -0.68021256, 87.60000610, 1210.81738281, 39.77999878, 0.00000000
1, 1.7499, 175, 0.00693528, -0.94787186, -0.32224104, 1.85821652, -2.74792767, -0.15189874, 14.27041817, -64.16749573, 43.38374710, -1.94093168, -0.80251193, -1.70532048, 0.99971956, 0.01703892, 0.00674936, 0.01499727, -0.02089281, 0.98184890, -0.67708415, 87.60000610, 1210.81738281, 39.77999878, 0.00000000
1, 1.7599, 176, 0.00525932, -0.94847095, -0.32057136, 1.26973498, -2.92209220, -0.27680781, 14.81888676, -62.89209366, 43.34568787, -1.92839253, -0.80904824, -1.73417532, 0.99971724, 0.01693208, 0.00680376, 0.01524922, -0.01934094, 0.98219198, -0.67876065, 87.60000610, 1210.81738281, 39.77999878, 0.00000000
1, 1.7699, 177, 0.00164354, -0.94825989, -0.31793249, 1.39908743, -3.07261658, -0.45615128, 14.48980618, -61.92455292, 43.59310150, -1.91457736, -0.81434208, -1.76505208, 0.99971485, 0.01681410, 0.00684726, 0.01551855, -0.01582067, 0.98176336, -0.68140554, 87.60000610, 1210.81738281, 39.77999878, 0.00000000
1, 1.7799, 178, -0.00004113, -0.95019358, -0.31276488, 1.60032725, -3.48244905, -0.48296160, 15.03827477, -61.92455292, 43.02214050, -1.89874673, -0.82065344, -1.79994500, 0.99971187, 0.01667893, 0.00689938, 0.01582292, -0.01424011, 0.98342508, -0.68658078, 87.60000610, 1210.81738281, 39.77999878, 0.00000000
1, 1.7899, 179, -0.00173725, -0.95372301, -0.30693194, 1.80088842, -3.73704696, -0.55924106, 15.29422855, -62.62821960, 43.09827042, -1.87397337, -0.82859826, -1.86724997, 0.99970549, 0.01646797, 0.00696245, 0.01640973, -0.01266404, 0.98662221, -0.69242299, 87.60000610, 1210.81738281, 39.77999878, 0.00000000
1, 1.7999, 180, -0.00071219, -0.95863789, -0.30554062, 1.89082134, -3.63199401, -0.64519924, 15.29422855, -62.62821960, 43.09827042, -1.85523736, -0.83380407, -1.90414596, 0.99970251, 0.01630751, 0.00700529, 0.01673120, -0.01380708, 0.99114197, -0.69382554, 87.60000610, 1210.81738281, 39.77999878, 0.00000000
1, 1.8099, 181, 0.00056501, -0.96316379, -0.30540529, 2.26911950, -3.76568890, -0.68432415, 14.70919418, -63.06801224, 43.45987701, -1.83271563, -0.83904046, -1.94250178, 0.99969965, 0.01611414, 0.00704887, 0.01706517, -0.01517337, 0.99528837, -0.69397181, 87.60000610, 1210.81738281, 39.77999878, 0.00000000
1, 1.8199, 182, -0.00124105, -0.96689850, -0.30809787, 1.98026907, -3.52751422, -0.69601125, 14.59950256, -63.37586975, 43.61213303, -1.81309116, -0.84342355, -1.97856033, 0.99969667, 0.01594581, 0.00708501, 0.01737913, -0.01344677, 0.99865228, -0.69128996, 87.60000610, 1210.81738281, 39.77999878, 0.00000000
1, 1.8299, 183, -0.00209757, -0.96987909, -0.30739015, 1.33331001, -3.43023515, -0.65682983, 14.96514320, -61.70465851, 42.86988068, -1.79993129, -0.84785783, -2.01346970, 0.99969298, 0.01583384, 0.00712087, 0.01768348, -0.01267238, 1.00136805, -0.69200480, 87.60000610, 1210.81738281, 39.77999878, 0.00000000
1, 1.8399, 184, -0.00385466, -0.96734059, -0.30563733, 1.27828157, -3.24140382, -0.68784815, 14.48980618, -61.66067886, 43.26955795, -1.77875376, -0.85514224, -2.07719278, 0.99968529, 0.01565419, 0.00717899, 0.01823905, -0.01099764, 0.99856740, -0.69376457, 87.60000610, 1210.81738281, 39.77999878, 0.00000000
1, 1.8499, 185, -0.00402419, -0.96659106, -0.30892602, 0.78620267, -2.75178409, -0.42995250, 14.48980618, -61.66067886, 43.26955795, -1.77101243, -0.85959977, -2.10484385, 0.99968165, 0.01558910, 0.00721534, 0.01848039, -0.01095460, 0.99752933, -0.69048303, 87.60000610, 1210.81738281, 39.77999878, 0.00000000
1, 1.8599, 186, -0.00523248, -0.96494341, -0.30818897, 0.66181892, -2.47402596, -0.68740702, 14.63606358, -63.59576416, 43.45987701, -1.76452124, -0.86075485, -2.13062453, 0.99967825, 0.01553428, 0.00722297, 0.01870504, -0.00978283, 0.99577689, -0.69122267, 87.60000610, 1210.81738281, 39.77999878, 0.00000000
1, 1.8699, 187, -0.00469440, -0.96284139, -0.31349099, 1.03737462, -2.33356285, -0.70318145, 15.36735439, -61.52874374, 43.63116455, -1.75423968, -0.86131680, -2.15518451, 0.99967563, 0.01544623, 0.00722624, 0.01891872, -0.01033681, 0.99352467, -0.68592513, 87.60000610, 1210.81738281, 39.77999878, 0.00000000
1, 1.8799, 188, 0.00010082, -0.95900130, -0.31676483, 0.96667701, -2.66232085, -0.56925035, 14.23385715, -62.58424377, 43.28859329, -1.74470127, -0.86415851, -2.18245482, 0.99967217, 0.01536520, 0.00724895, 0.01915640, -0.01516041, 0.98949218, -0.68265676, 87.60000610, 1210.81738281, 39.77999878, 0.00000000
1, 1.8899, 189, 0.00559345, -0.95854074, -0.31571695, 0.08713508, -2.94767046, -0.32646188, 14.12416077, -62.01251602, 43.00310516, -1.74804401, -0.86302006, -2.24207830, 0.99966168, 0.01539794, 0.00723045, 0.01967660, -0.02070592, 0.98898637, -0.68370521, 87.60000610, 1210.81738281, 39.77999878, 0.00000000
1, 1.8999, 190, 0.00615620, -0.96096975, -0.31188217, -0.29088303, -2.95234418, -0.21993363, 14.12416077, -62.01251602, 43.00310516, -1.75108469, -0.87008470, -2.27076912, 0.99965584, 0.01542749, 0.00728770, 0.01992801, -0.02129248, 0.99150360, -0.68753701, 87.60000610, 1210.81738281, 39.77999878, 0.00000000
1, 1.9099, 191, 0.00192763, -0.95874751, -0.31369698, 0.26263556, -2.74272251, -0.18206371, 14.19729233, -61.88057327, 42.96504593, -1.74857557, -0.87686539, -2.29745102, 0.99965107, 0.01540848, 0.00734370, 0.02016151, -0.01718828, 0.98928064, -0.68572026, 87.60000610, 1210.81738281, 39.77999878, 0.00000000
1, 1.9199, 192, -0.00362830, -0.95908123, -0.31117550, 0.04294142, -2.19494915, -0.20503180, 14.27041817, -63.46382904, 43.15536499, -1.74822617, -0.88172263, -2.31896091, 0.99964690, 0.01540766, 0.00738324, 0.02034977, -0.01173237, 0.98957372, -0.68824148, 87.60000610, 1210.81738281, 39.77999878, 0.00000000
1, 1.9299, 193, -0.00775975, -0.96027559, -0.31079844, -0.71489847, -1.25287056, -0.46415982, 14.23385715, -63.68372726, 43.38374710, -1.75542438, -0.88118649, -2.33216834, 0.99964368, 0.01547121, 0.00737550, 0.02046538, -0.00762743, 0.99085611, -0.68861538, 87.60000610, 1210.81738281, 39.77999878, 0.00000000
1, 1.9399, 194, -0.01089421, -0.96226341, -0.31336993, -0.57464123, -0.87409765, -0.47420403, 14.70919418, -64.16749573, 43.00310516, -1.76241684, -0.90672660, -2.37293887, 0.99963361, 0.01553942, 0.00759152, 0.02082488, -0.00458488, 0.99296939, -0.68603861, 87.60000610, 1210.81738281, 39.77999878, 0.00000000
1, 1.9499, 195, -0.00732332, -0.95935297, -0.31287929, -0.23124741, -1.30167687, -0.39635253, 13.90477753, -63.72769928, 42.81278610, -1.76478243, -0.90699917, -2.38649344, 0.99963081, 0.01556100, 0.00759163, 0.02094331, -0.00849904, 0.99012917, -0.68652177, 87.60000610, 1210.81738281, 39.77999878, 0.00000000
1, 1.9599, 196, -0.00425033, -0.96060777, -0.31162402, -0.39444798, -1.42645085, -0.18753675, 13.90477753, -63.72769928, 42.81278610, -1.76877618, -0.90964264, -2.40054917, 0.99962753, 0.01559725, 0.00761205, 0.02106655, -0.01160433, 0.99144334, -0.68777466, 87.60000610, 1210.81738281, 39.77999878, 0.00000000
1, 1.9699, 197, -0.00060332, -0.95546770, -0.31330112, -0.66771644, -1.46831131, 0.14640726, 14.30698395, -61.57272339, 42.83182144, -1.77550173, -0.91559058, -2.41391897, 0.99962366, 0.01565790, 0.00766087, 0.02118441, -0.01533636, 0.98639762, -0.68609333, 87.60000610, 1210.81738281, 39.77999878, 0.00000000
1, 1.9799, 198, 0.00369710, -0.95106930, -0.31765327, -0.68639690, -1.27862537, 0.08013914, 14.38011456, -61.83659363, 42.71763229, -1.78241479, -0.92032158, -2.42568231, 0.99962020, 0.01571986, 0.00769925, 0.02128813, -0.01973107, 0.98212695, -0.68173563, 87.60000610, 1210.81738281, 39.77999878, 0.00000000
1, 1.9899, 199, 0.00559824, -0.94767910, -0.31822357, -0.16471621, -1.37660229, 0.02374805, 14.34354877, -63.24393463, 43.19342804, -1.79971635, -0.91561216, -2.46852183, 0.99961007, 0.01587278, 0.00764902, 0.02166235, -0.02166055, 0.97886813, -0.68116093, 87.60000610, 1210.81738281, 39.77999878, 0.00000000
1, 1.9999, 200, 0.00483555, -0.94971013, -0.31575420, 0.00344084, -2.19952893, 0.05866740, 14.38011456, -61.61669922, 43.13633347, -1.79974186, -0.92300922, -2.48924708, 0.99960566, 0.01587578, 0.00771067, 0.02184415, -0.02089261, 0.98111326, -0.68362355, 87.60000610, 1210.81738281, 39.77999878, 0.00000000
1, 2.0099, 201, 0.00394353, -0.95451534, -0.30749094, 0.07841095, -2.42051911, -0.03409956, 14.38011456, -61.61669922, 43.13633347, -1.79905009, -0.93021423, -2.51237249, 0.99960077, 0.01587267, 0.00777045, 0.02204680, -0.02013382, 0.98591423, -0.69188482, 87.60000610, 1210.81738281, 39.77999878, 0.00000000
1, 2.0199, 202, 0.00216823, -0.95815092, -0.30670562, 0.29295972, -2.10750222, -0.18638003, 14.67262936, -62.98005676, 42.52730942, -1.79619026, -0.93499994, -2.53303790, 0.99959683, 0.01585005, 0.00780989, 0.02222753, -0.01845719, 0.98951405, -0.69266969, 87.60000610, 1210.81738281, 39.77999878, 0.00000000
1, 2.0299, 203, 0.00084998, -0.96075720, -0.30698487, 0.49145192, -2.00045919, -0.34294173, 14.34354877, -61.39680099, 42.66053009, -1.79133487, -0.93796289, -2.55320764, 0.99959338, 0.01580964, 0.00783390, 0.02240354, -0.01720079, 0.99204051, -0.69239199, 87.60000610, 1210.81738281, 39.77999878, 0.00000000
1, 2.0399, 204, -0.00164175, -0.96007121, -0.30639181, -0.12114174, -1.52324557, -0.43650430, 14.81888676, -61.83659363, 42.60343552, -1.78252590, -0.94283503, -2.60103965, 0.99958473, 0.01573702, 0.00787155, 0.02282083, -0.01475403, 0.99128920, -0.69298637, 87.60000610, 1210.81738281, 39.77999878, 0.00000000
1, 2.0499, 205, -0.00421168, -0.95892447, -0.31201151, -0.42990619, -0.90613151, -0.54563355, 15.22109699, -63.19995117, 42.81278610, -1.78685606, -0.94046122, -2.61126423, 0.99958235, 0.01577503, 0.00784857, 0.02291000, -0.01222051, 0.99007773, -0.68736798, 87.60000610, 1210.81738281, 39.77999878, 0.00000000
1, 2.0599, 206, -0.00559046, -0.95674390, -0.31041098, -0.03640286, -0.71349639, -0.59552270, 15.22109699, -63.19995117, 42.81278610, -1.78725278, -0.93702149, -2.61988282, 0.99958074, 0.01577840, 0.00781730, 0.02298474, -0.01078655, 0.98792350, -0.68896866, 87.60000610, 1210.81738281, 39.77999878, 0.00000000
1, 2.0699, 207, -0.00448960, -0.95577919, -0.31063819, -0.01886508, -0.93920720, -0.42453858, 14.92858315, -63.02403641, 42.66053009, -1.78746843, -0.93590611, -2.63012433, 0.99957877, 0.01578076, 0.00780612, 0.02307394, -0.01184699, 0.98696256, -0.68874198, 87.60000610, 1210.81738281, 39.77999878, 0.00000000
1, 2.0799, 208, -0.00140546, -0.95487392, -0.31105953, -0.25352794, -1.25494373, -0.11404896, 14.59950256, -64.38739014, 42.85084915, -1.79004681, -0.93871987, -2.64235663, 0.99957573, 0.01580464, 0.00782846, 0.02318120, -0.01495839, 0.98609346, -0.68831909, 87.60000610, 1210.81738281, 39.77999878, 0.00000000
1, 2.0899, 209, 0.00180608, -0.95292419, -0.31384116, 0.04973501, -1.37577355, 0.07584421, 14.56293774, -61.35282516, 42.45117950, -1.79725492, -0.93983072, -2.68705416, 0.99956548, 0.01587079, 0.00783050, 0.02357173, -0.01822210, 0.98418391, -0.68553531, 87.60000610, 1210.81738281, 39.77999878, 0.00000000
1, 2.0999, 210, 0.00095985, -0.95166516, -0.31128761, -0.23977269, -1.17305112, 0.13372700, 15.07484055, -63.37586975, 42.58440399, -1.79968631, -0.94474781, -2.69774151, 0.99956262, 0.01589374, 0.00787141, 0.02366579, -0.01742286, 0.98304152, -0.68808442, 87.60000610, 1210.81738281, 39.77999878, 0.00000000
1, 2.1099, 211, 0.00012160, -0.95089805, -0.31239894, -0.56697506, -0.36596444, -0.05924352, 15.07484055, -63.37586975, 42.58440399, -1.80535519, -0.94532007, -2.70129156, 0.99956107, 0.01594355, 0.00787474, 0.02369722, -0.01662271, 0.98235446, -0.68697000, 87.60000610, 1210.81738281, 39.77999878, 0.00000000
1, 2.1199, 212, -0.00493961, -0.95070136, -0.31808341, -0.80128056, 0.46298999, -0.49813488, 14.78232574, -62.23241043, 42.96504593, -1.81336033, -0.93913716, -2.69829535, 0.99956107, 0.01601191, 0.00781957, 0.02367080, -0.01149843, 0.98229063, -0.68128234, 87.60000610, 1210.81738281, 39.77999878, 0.00000000
1, 2.1299, 213, -0.00682419, -0.95525783, -0.32093662, -0.56432271, 0.36534098, -0.71185261, 14.23385715, -60.95701218, 43.15536499, -1.81899786, -0.93123257, -2.69694018, 0.99956107, 0.01605937, 0.00774964, 0.02365828, -0.00947634, 0.98696208, -0.67842782, 87.60000610, 1210.81738281, 39.77999878, 0.00000000
1, 2.1399, 214, -0.00417222, -0.96155411, -0.31541446, -0.56496996, -0.15554638, -0.33607885, 14.74575996, -62.10047150, 43.00310516, -1.81654811, -0.94187522, -2.73249578, 0.99955332, 0.01604261, 0.00783800, 0.02396971, -0.01209990, 0.99331838, -0.68394852, 87.60000610, 1210.81738281, 39.77999878, 0.00000000
1, 2.1499, 215, -0.00054979, -0.96227652, -0.31061095, -0.18919951, -0.36157733, -0.14819880, 15.14796638, -62.84811401, 43.09827042, -1.81845975, -0.94158930, -2.73635960, 0.99955225, 0.01605949, 0.00783457, 0.02400351, -0.01588400, 0.99400461, -0.68875051, 87.60000610, 1210.81738281, 39.77999878, 0.00000000
1, 2.1599, 216, 0.00116534, -0.95963812, -0.30611190, 0.47000092, -0.04934132, -0.03818161, 15.14796638, -62.84811401, 43.09827042, -1.81376755, -0.94138694, -2.73703551, 0.99955273, 0.01601857, 0.00783369, 0.02400905, -0.01759217, 0.99132246, -0.69325101, 87.60000610, 1210.81738281, 39.77999878, 0.00000000
1, 2.1699, 217, 0.00183585, -0.95681781, -0.30648434, 0.25178805, 0.06674746, 0.10555319, 14.96514320, -62.05649185, 43.00310516, -1.81125212, -0.94218308, -2.73612022, 0.99955320, 0.01599673, 0.00784129, 0.02400100, -0.01826975, 0.98842514, -0.69288093, 87.60000610, 1210.81738281, 39.77999878, 0.00000000
1, 2.1799, 218, -0.00211250, -0.95147133, -0.30701220, -0.54252994, 0.59172010, 0.15417720, 14.74575996, -62.58424377, 42.56536865, -1.81666148, -0.94181061, -2.72990942, 0.99955380, 0.01604341, 0.00783778, 0.02394715, -0.01432802, 0.98312205, -0.69235158, 87.60000610, 1210.81738281, 39.77999878, 0.00000000
1, 2.1899, 219, -0.00027338, -0.95198387, -0.30761117, -1.30075347, 0.82251155, 0.37228906, 14.56293774, -61.96853638, 42.64150238, -1.82425904, -0.93809640, -2.75284767, 0.99954826, 0.01611048, 0.00780057, 0.02414724, -0.01614687, 0.98378956, -0.69174802, 87.60000610, 1210.81738281, 39.77999878, 0.00000000
1, 2.1999, 220, 0.00202929, -0.95500648, -0.30711538, -1.19344521, 0.18153931, 0.79794282, 15.18453217, -63.50780487, 43.04117203, -1.83617318, -0.94509774, -2.74840784, 0.99954695, 0.01621556, 0.00785976, 0.02411029, -0.01847089, 0.98698092, -0.69223809, 87.60000610, 1210.81738281, 39.77999878, 0.00000000
1, 2.2099, 221, -0.00011249, -0.95775473, -0.30491239, 0.26187831, -0.20243858, 0.83815199, 15.47705078, -63.28790665, 42.96504593, -1.83355486, -0.95369577, -2.74777317, 0.99954677, 0.01619446, 0.00793540, 0.02410576, -0.01646832, 0.98978198, -0.69443709, 87.60000610, 1210.81738281, 39.77999878, 0.00000000
1, 2.2199, 222, -0.00238388, -0.96055686, -0.30920333, 0.74656951, -0.28469041, 0.85251790, 15.47705078, -63.28790665, 42.96504593, -1.82609677, -0.96268123, -2.74797082, 0.99954706, 0.01613129, 0.00801532, 0.02410820, -0.01436925, 0.99246252, -0.69014716, 87.60000610, 1210.81738281, 39.77999878, 0.00000000
1, 2.2299, 223, -0.00361419, -0.96165967, -0.30805546, -0.42113158, 0.58783358, 0.45255527, 15.03827477, -63.63974380, 43.42181396, -1.83029580, -0.96515173, -2.74088764, 0.99954784, 0.01616793, 0.00803698, 0.02404705, -0.01322623, 0.99355322, -0.69129395, 87.60000610, 1210.81738281, 39.77999878, 0.00000000
1, 2.2399, 224, -0.00222315, -0.96091986, -0.30923495, -1.15257978, 1.19330132, -0.20045310, 14.85545158, -63.72769928, 43.57406616, -1.83499372, -0.96189821, -2.76155090, 0.99954307, 0.01620968, 0.00800469, 0.02422717, -0.01457955, 0.99294817, -0.69011080, 87.60000610, 1210.81738281, 39.77999878, 0.00000000
1, 2.2499, 225, 0.00046358, -0.96161211, -0.30727214, -0.92327148, 0.63955051, -0.86319411, 14.67262936, -62.71617889, 42.64150238, -1.84421468, -0.95169306, -2.75798011, 0.99954331, 0.01628773, 0.00791423, 0.02419525, -0.01713643, 0.99374032, -0.69207251, 87.60000610, 1210.81738281, 39.77999878, 0.00000000
1, 2.2599, 226, 0.00494624, -0.96010494, -0.30585858, -0.20077726, -0.19817342, -0.70723379, 14.56293774, -61.79261780, 42.79375458, -1.84622216, -0.94559169, -2.76203132, 0.99954259, 0.01630425, 0.00786001, 0.02422988, -0.02148471, 0.99231303, -0.69348580, 87.60000610, 1210.81738281, 39.77999878, 0.00000000
1, 2.2699, 227, 0.00776283, -0.96047491, -0.30884576, -0.30448765, -0.97461742, -0.49472228, 14.56293774, -61.79261780, 42.79375458, -1.84930575, -0.94392705, -2.77277565, 0.99953997, 0.01633153, 0.00784331, 0.02432358, -0.02423994, 0.99271262, -0.69049865, 87.60000610, 1210.81738281, 39.77999878, 0.00000000
1, 2.2799, 228, 0.01056447, -0.96175665, -0.31202427, -0.98518735, -1.32588458, -0.32424128, 15.33078861, -62.27638626, 42.88891602, -1.85921276, -0.94497728, -2.78618360, 0.99953568, 0.01641908, 0.00784845, 0.02444136, -0.02704631, 0.99412632, -0.68731582, 87.60000610, 1210.81738281, 39.77999878, 0.00000000
1, 2.2899, 229, 0.00513282, -0.96426290, -0.31280923, -1.12638688, -1.35902309, -0.46513242, 14.56293774, -63.28790665, 43.17439651, -1.86487222, -0.94114566, -2.83168769, 0.99952531, 0.01647074, 0.00780728, 0.02483812, -0.02161618, 0.99680072, -0.68652529, 87.60000610, 1210.81738281, 39.77999878, 0.00000000
1, 2.2999, 230, -0.00052390, -0.96912062, -0.31552115, -1.22825885, -1.42246079, -0.83529884, 14.78232574, -62.27638626, 43.15536499, -1.87720275, -0.93764067, -2.84758067, 0.99952042, 0.01657863, 0.00777173, 0.02497709, -0.01586840, 1.00178862, -0.68381065, 87.60000610, 1210.81738281, 39.77999878, 0.00000000
1, 2.3099, 231, -0.00394721, -0.97235620, -0.31456640, -1.51206505, -1.33436298, -1.11383128, 14.27041817, -64.16749573, 42.86988068, -1.89235747, -0.93121499, -2.86343431, 0.99951524, 0.01671049, 0.00771007, 0.02511549, -0.01234876, 1.00527143, -0.68475890, 87.60000610, 1210.81738281, 39.77999878, 0.00000000
1, 2.3199, 232, -0.00698939, -0.97248209, -0.31324670, -1.74557948, -1.07660818, -1.24832428, 14.27041817, -64.16749573, 42.86988068, -1.90984786, -0.92270190, -2.87723041, 0.99951017, 0.01686212, 0.00762995, 0.02523577, -0.00917526, 1.00568843, -0.68607110, 87.60000610, 1210.81738281, 39.77999878, 0.00000000
1, 2.3299, 233, -0.00902843, -0.96803963, -0.31462172, -1.67974842, -0.80561268, -0.99673200, 14.59950256, -62.45230865, 42.56536865, -1.92668796, -0.91574973, -2.88767242, 0.99950594, 0.01700818, 0.00756405, 0.02532697, -0.00699302, 1.00154078, -0.68468857, 87.60000610, 1210.81738281, 39.77999878, 0.00000000
1, 2.3399, 234, -0.00501752, -0.95979595, -0.31753409, -2.18794870, -0.73009211, -0.60686648, 14.08759975, -62.40832901, 42.24182510, -1.95283306, -0.91783005, -2.92761421, 0.99949300, 0.01723932, 0.00757041, 0.02567738, -0.01094580, 0.99366534, -0.68176460, 87.60000610, 1210.81738281, 39.77999878, 0.00000000
1, 2.3499, 235, -0.00356062, -0.95164770, -0.31472141, -2.41248822, -0.43076721, -0.12527215, 14.81888676, -63.55178452, 42.96504593, -1.97697914, -0.91797894, -2.93161821, 0.99948847, 0.01745023, 0.00756569, 0.02571392, -0.01245288, 0.98598284, -0.68456066, 87.60000610, 1210.81738281, 39.77999878, 0.00000000
1, 2.3599, 236, -0.00449800, -0.94711787, -0.31479144, -2.20197535, -0.10518215, 0.00397688, 14.56293774, -64.34340668, 42.75569153, -1.99901497, -0.91833109, -2.93217325, 0.99948496, 0.01764254, 0.00756373, 0.02572027, -0.01152704, 0.98185110, -0.68447667, 87.60000610, 1210.81738281, 39.77999878, 0.00000000
1, 2.3699, 237, -0.00633101, -0.94439185, -0.31537652, -1.86720860, 0.30657846, 0.16981412, 14.56293774, -64.34340668, 42.75569153, -2.01766586, -0.91895711, -2.92835832, 0.99948287, 0.01780511, 0.00756560, 0.02568832, -0.00970250, 0.97947681, -0.68387926, 87.60000610, 1210.81738281, 39.77999878, 0.00000000
1, 2.3799, 238, -0.00730223, -0.94748765, -0.31916308, -1.61920547, 0.66904289, 0.15909733, 14.96514320, -63.85964203, 42.58440399, -2.03383350, -0.91834730, -2.92119026, 0.99948198, 0.01794551, 0.00755778, 0.02562678, -0.00872976, 0.98286700, -0.68008232, 87.60000610, 1210.81738281, 39.77999878, 0.00000000
1, 2.3899, 239, -0.00645314, -0.94958878, -0.32049194, -1.53469408, 0.75035220, 0.47695765, 14.38011456, -62.10047150, 42.31795502, -2.05349612, -0.93206257, -2.94456410, 0.99947256, 0.01812161, 0.00766931, 0.02583406, -0.00964129, 0.98526168, -0.67874199, 87.60000610, 1210.81738281, 39.77999878, 0.00000000
1, 2.3999, 240, -0.00301392, -0.95173144, -0.32062358, -1.28501582, 0.52532411, 0.71755904, 15.40392017, -62.10047150, 42.81278610, -2.06634021, -0.93720967, -2.93706846, 0.99947184, 0.01823428, 0.00771250, 0.02577034, -0.01330975, 0.98770195, -0.67859596, 87.60000610, 1210.81738281, 39.77999878, 0.00000000
1, 2.4099, 241, -0.00144798, -0.94921529, -0.32018843, -1.28726327, 0.31461945, 1.01196730, 14.41668034, -62.27638626, 42.77472687, -2.07922053, -0.94582123, -2.93063307, 0.99947053, 0.01834810, 0.00778574, 0.02571642, -0.01500441, 0.98540705, -0.67902100, 87.60000610, 1210.81738281, 39.77999878, 0.00000000
1, 2.4199, 242, -0.00044265, -0.95033336, -0.31987777, -1.91750860, 0.65332407, 0.98586011, 14.41668034, -62.27638626, 42.77472687, -2.09837914, -0.95310628, -2.92093515, 0.99946910, 0.01851615, 0.00784655, 0.02563429, -0.01614600, 0.98680359, -0.67931932, 87.60000610, 1210.81738281, 39.77999878, 0.00000000
1, 2.4299, 243, 0.00163729, -0.95406127, -0.31735879, -2.24203777, 1.22084498, 0.75268823, 14.16072655, -61.96853638, 42.45117950, -2.12075925, -0.95637196, -2.90654707, 0.99946845, 0.01871108, 0.00787238, 0.02551085, -0.01831111, 0.99091780, -0.68182266, 87.60000610, 1210.81738281, 39.77999878, 0.00000000
1, 2.4399, 244, -0.00296340, -0.95568001, -0.31560531, -1.94026172, 1.77441752, 0.62277657, 14.52637196, -62.36434555, 42.60343552, -2.13527083, -0.96038920, -2.91944170, 0.99946284, 0.01883943, 0.00790207, 0.02562496, -0.01375347, 0.99287868, -0.68356282, 87.60000610, 1210.81738281, 39.77999878, 0.00000000
1, 2.4499, 245, -0.00675270, -0.96334612, -0.31434783, -1.27055848, 1.82166553, 0.14710635, 14.45324135, -61.96853638, 43.17439651, -2.14794183, -0.95601249, -2.90143943, 0.99946517, 0.01894774, 0.00786404, 0.02546811, -0.00996351, 1.00074732, -0.68481272, 87.60000610, 1210.81738281, 39.77999878, 0.00000000
1, 2.4599, 246, -0.00661613, -0.96567899, -0.31516305, -1.14106596, 1.60195673, 0.00146453, 14.16072655, -64.91514587, 42.88891602, -2.15931320, -0.95095068, -2.88601351, 0.99946702, 0.01904476, 0.00781992, 0.02533352, -0.01001664, 1.00327420, -0.68399161, 87.60000610, 1210.81738281, 39.77999878, 0.00000000
1, 2.4699, 247, -0.00298604, -0.96450865, -0.31840721, -1.65789139, 1.46294689, -0.14050303, 14.16072655, -64.91514587, 42.88891602, -2.17586088, -0.94497377, -2.87225986, 0.99946779, 0.01918685, 0.00776644, 0.02521372, -0.01354039, 1.00235593, -0.68073964, 87.60000610, 1210.81738281, 39.77999878, 0.00000000
1, 2.4799, 248, 0.00168746, -0.95880979, -0.32173061, -1.70518827, 0.53398269, -0.01926214, 14.12416077, -62.54026413, 42.69859695, -2.19289613, -0.94306993, -2.86692595, 0.99946618, 0.01933466, 0.00774698, 0.02516803, -0.01815468, 0.99695921, -0.67740577, 87.60000610, 1210.81738281, 39.77999878, 0.00000000
1, 2.4899, 249, 0.00876581, -0.95239645, -0.32166886, -1.86100698, -0.53562671, 0.25755864, 14.34354877, -62.76015854, 42.58440399, -2.21543670, -0.93154091, -2.90242577, 0.99945545, 0.01953112, 0.00763543, 0.02547726, -0.02519996, 0.99086833, -0.67745566, 87.60000610, 1210.81738281, 39.77999878, 0.00000000
1, 2.4999, 250, 0.01190705, -0.94769180, -0.32129315, -2.05601287, -0.86393660, 0.30398792, 14.23385715, -62.23241043, 42.77472687, -2.23601675, -0.93715459, -2.90924692, 0.99944997, 0.01971230, 0.00767864, 0.02553907, -0.02822632, 0.98656988, -0.67781752, 87.60000610, 1210.81738281, 39.77999878, 0.00000000
1, 2.5099, 251, 0.01024610, -0.94696605, -0.31656772, -2.05792546, -0.51944840, 0.22334468, 14.19729233, -63.06801224, 43.04117203, -2.25660682, -0.94090593, -2.91307187, 0.99944526, 0.01989297, 0.00770610, 0.02557445, -0.02665139, 0.98620158, -0.68252760, 87.60000610, 1210.81738281, 39.77999878, 0.00000000
1, 2.5199, 252, 0.00190156, -0.94810605, -0.31580555, -1.77480805, 0.03312408, 0.14620401, 14.05103493, -62.54026413, 42.90795135, -2.27436829, -0.94217378, -2.91194320, 0.99944234, 0.02004809, 0.00771340, 0.02556601, -0.01834148, 0.98767662, -0.68327600, 87.60000610, 1210.81738281, 39.77999878, 0.00000000
1, 2.5299, 253, -0.00574696, -0.95027429, -0.31492004, -1.56286681, 0.79383254, -0.10212617, 14.05103493, -62.54026413, 42.90795135, -2.28997374, -0.93866211, -2.90445352, 0.99944150, 0.02018292, 0.00768061, 0.02550113, -0.01066211, 0.99012649, -0.68415082, 87.60000610, 1210.81738281, 39.77999878, 0.00000000
1, 2.5399, 254, -0.01464443, -0.95185912, -0.31745929, -1.64022350, 1.65348732, -0.24202107, 14.45324135, -62.89209366, 42.94601059, -2.30595493, -0.94821692, -2.92132473, 0.99943423, 0.02032555, 0.00775739, 0.02565101, -0.00173448, 0.99198055, -0.68160123, 87.60000610, 1210.81738281, 39.77999878, 0.00000000
1, 2.5499, 255, -0.01351597, -0.95191920, -0.32630873, -1.56820095, 1.56771314, -0.20888810, 14.45324135, -62.40832901, 42.71763229, -2.32158685, -0.94120944, -2.90683794, 0.99943525, 0.02045936, 0.00769536, 0.02552450, -0.00295737, 0.99232340, -0.67273891, 87.60000610, 1210.81738281, 39.77999878, 0.00000000
1, 2.5599, 256, -0.00860473, -0.95227593, -0.32816526, -1.37814093, 0.52423364, -0.31929910, 15.03827477, -62.40832901, 42.71763229, -2.33536530, -0.93650401, -2.90261078, 0.99943411, 0.02057821, 0.00765201, 0.02548772, -0.00776243, 0.99292856, -0.67087400, 87.60000610, 1210.81738281, 39.77999878, 0.00000000
1, 2.5699, 257, -0.00081731, -0.95327383, -0.32131830, -1.44388676, -0.50950712, -0.09473471, 14.89201736, -64.21147156, 42.60343552, -2.34980774, -0.93722171, -2.90746737, 0.99943030, 0.02070466, 0.00765418, 0.02553117, -0.01552553, 0.99417377, -0.67771137, 87.60000610, 1210.81738281, 39.77999878, 0.00000000
1, 2.5799, 258, 0.00495618, -0.95387179, -0.31858265, -1.32144868, -0.54683965, 0.15020214, 14.89201736, -64.21147156, 42.60343552, -2.36303949, -0.94038546, -2.91190767, 0.99942672, 0.02082106, 0.00767802, 0.02557135, -0.02135228, 0.99501556, -0.68043607, 87.60000610, 1210.81738281, 39.77999878, 0.00000000
1, 2.5899, 259, 0.00184400, -0.95590687, -0.32004660, -1.23195696, -0.04354784, -0.15590020, 14.30698395, -63.72769928, 42.98407745, -2.36808562, -0.94212633, -2.94503999, 0.99941820, 0.02086767, 0.00768604, 0.02586097, -0.01826994, 0.99722916, -0.67896426, 87.60000610, 1210.81738281, 39.77999878, 0.00000000
1, 2.5999, 260, -0.00324426, -0.95525408, -0.31975904, -1.51991725, 0.71580029, -0.56093413, 15.00170898, -63.19995117, 42.50827408, -2.38325906, -0.93450123, -2.93976712, 0.99941725, 0.02099796, 0.00761708, 0.02581463, -0.01312027, 0.99672800, -0.67924654, 87.60000610, 1210.81738281, 39.77999878, 0.00000000
1, 2.6099, 261, -0.00537574, -0.95408618, -0.32238927, -1.86032593, 0.86950809, -0.67970914, 14.52637196, -63.02403641, 42.35601807, -2.40183973, -0.92525828, -2.93334198, 0.99941593, 0.02115754, 0.00753347, 0.02575815, -0.01083264, 0.99586540, -0.67660618, 87.60000610, 1210.81738281, 39.77999878, 0.00000000
1, 2.6199, 262, -0.00564108, -0.95265311, -0.32659715, -1.47916150, 0.34044006, -0.67442018, 14.78232574, -62.10047150, 42.14667130, -2.41663146, -0.91777420, -2.93199611, 0.99941409, 0.02128479, 0.00746512, 0.02574602, -0.01042257, 0.99472255, -0.67238837, 87.60000610, 1210.81738281, 39.77999878, 0.00000000
1, 2.6299, 263, -0.00312755, -0.94898355, -0.32691264, -1.32014370, 0.00949943, -0.29514158, 14.78232574, -62.10047150, 42.14667130, -2.42983818, -0.91493529, -2.93259978, 0.99941170, 0.02139939, 0.00743728, 0.02575162, -0.01285244, 0.99128371, -0.67206454, 87.60000610, 1210.81738281, 39.77999878, 0.00000000
1, 2.6399, 264, -0.00045093, -0.94651997, -0.32597345, -1.21580935, -0.06285234, -0.01572900, 14.41668034, -62.54026413, 42.94601059, -2.46037698, -0.92046106, -2.96506929, 0.99939817, 0.02166907, 0.00747247, 0.02603781, -0.01553646, 0.98912692, -0.67299056, 87.60000610, 1210.81738281, 39.77999878, 0.00000000
1, 2.6499, 265, -0.00044944, -0.94311279, -0.32154912, -1.14939058, 0.27818695, 0.14944245, 14.52637196, -63.50780487, 42.31795502, -2.47185445, -0.92096466, -2.96172690, 0.99939668, 0.02176907, 0.00747489, 0.02600950, -0.01562138, 0.98616076, -0.67739463, 87.60000610, 1210.81738281, 39.77999878, 0.00000000
1, 2.6599, 266, -0.00347333, -0.94071507, -0.31978041, -0.81195593, 0.69309956, 0.12197638, 15.07484055, -63.55178452, 42.35601807, -2.47995591, -0.91987705, -2.95460939, 0.99939692, 0.02183902, 0.00746492, 0.02594775, -0.01259096, 0.98392755, -0.67915642, 87.60000610, 1210.81738281, 39.77999878, 0.00000000
1, 2.6699, 267, -0.00540515, -0.94253099, -0.31852224, -0.42275813, 1.33142030, 0.09904877, 14.52637196, -64.29943085, 42.50827408, -2.48413038, -0.91652620, -2.94160342, 0.99939930, 0.02187383, 0.00743724, 0.02583397, -0.01061586, 0.98584181, -0.68041098, 87.60000610, 1210.81738281, 39.77999878, 0.00000000
1, 2.6799, 268, -0.00953207, -0.94689649, -0.32007548, -0.53243268, 1.64018571, 0.05314087, 14.52637196, -64.29943085, 42.50827408, -2.48938870, -0.91173023, -2.92580843, 0.99940217, 0.02191760, 0.00739724, 0.02569565, -0.00640945, 0.99029213, -0.67885530, 87.60000610, 1210.81738281, 39.77999878, 0.00000000
1, 2.6899, 269, -0.00841834, -0.95037407, -0.32085747, -0.33761051, 1.63886786, 0.22830011, 14.78232574, -62.45230865, 42.48923874, -2.48787451, -0.92562753, -2.94251347, 0.99939764, 0.02190857, 0.00751560, 0.02584385, -0.00753343, 0.99381793, -0.67807102, 87.60000610, 1210.81738281, 39.77999878, 0.00000000
1, 2.6999, 270, -0.00646273, -0.95514536, -0.31997803, 0.03819269, 1.53689969, 0.34805456, 14.19729233, -62.54026413, 42.39408493, -2.48744178, -0.92396122, -2.92684817, 0.99940133, 0.02190340, 0.00750415, 0.02570689, -0.00967088, 0.99855351, -0.67894912, 87.60000610, 1210.81738281, 39.77999878, 0.00000000
1, 2.7099, 271, -0.00111951, -0.95971352, -0.32115239, -0.05161659, 1.31063128, 0.50177717, 14.74575996, -62.27638626, 42.67956161, -2.48790789, -0.92448646, -2.91282248, 0.99940443, 0.02190666, 0.00751131, 0.02558470, -0.01500671, 1.00311089, -0.67777538, 87.60000610, 1210.81738281, 39.77999878, 0.00000000
1, 2.7199, 272, -0.00033635, -0.96273327, -0.32030395, -0.25160131, 1.34052384, 0.67880064, 15.36735439, -63.63974380, 42.66053009, -2.49037528, -0.92658633, -2.89789152, 0.99940705, 0.02192766, 0.00753193, 0.02545503, -0.01582229, 1.00615716, -0.67862201, 87.60000610, 1210.81738281, 39.77999878, 0.00000000
1, 2.7299, 273, 0.00091409, -0.96306771, -0.32115421, -0.05116393, 1.20714164, 0.53475660, 15.36735439, -63.63974380, 42.66053009, -2.49083877, -0.92775089, -2.88473129, 0.99940979, 0.02193109, 0.00754450, 0.02534050, -0.01709623, 1.00652814, -0.67776984, 87.60000610, 1210.81738281, 39.77999878, 0.00000000
1, 2.7399, 274, 0.00249179, -0.95948881, -0.32043445, 0.42239591, 0.64733690, 0.36333358, 15.25766277, -63.68372726, 42.71763229, -2.45877790, -0.92244542, -2.91102839, 0.99941051, 0.02165204, 0.00750036, 0.02556676, -0.01867189, 1.00277925, -0.67849708, 87.60000610, 1210.81738281, 39.77999878, 0.00000000
1, 2.7499, 275, 0.00307833, -0.95545560, -0.32046065, 0.12199447, 0.61551100, 0.06475250, 14.59950256, -64.03556061, 42.52730942, -2.45752478, -0.92107886, -2.90501523, 0.99941212, 0.02164041, 0.00748985, 0.02551398, -0.01916249, 0.99832952, -0.67849040, 87.60000610, 1210.81738281, 39.77999878, 0.00000000
1, 2.7599, 276, 0.00229901, -0.94959891, -0.32338095, -0.25443375, 0.78609014, -0.05355764, 14.05103493, -62.40832901, 42.47021484, -2.46004629, -0.91803825, -2.89769650, 0.99941361, 0.02166126, 0.00746415, 0.02544975, -0.01834251, 0.99249184, -0.67556989, 87.60000610, 1210.81738281, 39.77999878, 0.00000000
1, 2.7699, 277, 0.00130405, -0.94726378, -0.32352892, -0.69981259, 0.78601170, -0.26313618, 14.52637196, -62.45230865, 42.52730942, -2.46701574, -0.91301489, -2.89097214, 0.99941409, 0.02172051, 0.00742007, 0.02539062, -0.01727412, 0.99025416, -0.67541891, 87.60000610, 1210.81738281, 39.77999878, 0.00000000
1, 2.7799, 278, 0.00281527, -0.94841689, -0.32441294, -0.34287888, 0.78681952, -0.14116323, 14.52637196, -62.45230865, 42.60343552, -2.47042441, -0.90913939, -2.88389182, 0.99941534, 0.02174894, 0.00738686, 0.02532837, -0.01870700, 0.99149698, -0.67453223, 87.60000610, 1210.81738281, 39.77999878, 0.00000000
1, 2.7899, 279, 0.00111654, -0.95082629, -0.32398725, 0.55158693, 0.75668269, 0.03124930, 14.92858315, -64.38739014, 42.60343552, -2.46582794, -0.90903479, -2.90845251, 0.99941069, 0.02171041, 0.00738231, 0.02554226, -0.01696451, 0.99388111, -0.67495972, 87.60000610, 1210.81738281, 39.77999878, 0.00000000
1, 2.7999, 280, 0.00106982, -0.95526516, -0.32481959, 0.71252352, 0.61872083, 0.15090460, 14.92858315, -63.46382904, 42.92698288, -2.45867801, -0.90847427, -2.90224290, 0.99941349, 0.02164752, 0.00738018, 0.02548754, -0.01692285, 0.99820542, -0.67413235, 87.60000610, 1210.81738281, 39.77999878, 0.00000000
1, 2.8099, 281, 0.00246271, -0.95848626, -0.32615048, 0.62326962, 0.35843354, 0.28633195, 14.52637196, -62.98005676, 42.77472687, -2.45243144, -0.91003478, -2.89805627, 0.99941552, 0.02159312, 0.00739597, 0.02545091, -0.01834201, 1.00131679, -0.67280567, 87.60000610, 1210.81738281, 39.77999878, 0.00000000
1, 2.8199, 282, 0.00241030, -0.95557201, -0.32539171, 0.94988567, 0.26148781, 0.07235467, 14.41668034, -62.36434555, 42.60343552, -2.44292212, -0.90989047, -2.89553618, 0.99941790, 0.02150999, 0.00739730, 0.02542830, -0.01829116, 0.99825734, -0.67357063, 87.60000610, 1210.81738281, 39.77999878, 0.00000000
1, 2.8299, 283, 0.00289517, -0.95306826, -0.32518387, 0.96989721, 0.19473670, -0.03457979, 14.89201736, -61.79261780, 42.60343552, -2.43321276, -0.90894324, -2.89398813, 0.99942005, 0.02142500, 0.00739148, 0.02541399, -0.01876596, 0.99557567, -0.67378622, 87.60000610, 1210.81738281, 39.77999878, 0.00000000
1, 2.8399, 284, 0.00273875, -0.94835615, -0.32644406, 0.39743444, 0.36520112, -0.24018401, 14.89201736, -61.79261780, 42.60343552, -2.45594215, -0.90353423, -2.92321587, 0.99940974, 0.02162392, 0.00733375, 0.02566937, -0.01855970, 0.99086541, -0.67252672, 87.60000610, 1210.81738281, 39.77999878, 0.00000000
1, 2.8499, 285, 0.00387475, -0.94565189, -0.32675073, -0.30170798, 0.44662440, -0.30664617, 14.67262936, -63.77168274, 43.04117203, -2.45893908, -0.89919740, -2.91990995, 0.99941027, 0.02164889, 0.00729588, 0.02563992, -0.01959812, 0.98852688, -0.67220604, 87.60000610, 1210.81738281, 39.77999878, 0.00000000
1, 2.8599, 286, 0.00629016, -0.94756365, -0.32701495, -0.19272865, 0.24106215, -0.27614471, 14.92858315, -63.85964203, 42.64150238, -2.46085501, -0.89580268, -2.91848207, 0.99941039, 0.02166476, 0.00726611, 0.02562696, -0.02194263, 0.99049240, -0.67194057, 87.60000610, 1210.81738281, 39.77999878, 0.00000000
1, 2.8699, 287, 0.00663107, -0.95243210, -0.32532310, 0.61799610, -0.25089702, -0.23623331, 14.27041817, -62.67220306, 42.75569153, -2.45468855, -0.89437050, -2.92174578, 0.99941099, 0.02161087, 0.00725439, 0.02565477, -0.02224312, 0.99529886, -0.67363566, 87.60000610, 1210.81738281, 39.77999878, 0.00000000
1, 2.8799, 288, 0.00679285, -0.95402211, -0.32684040, 0.61779112, -0.38983855, -0.13368389, 14.92858315, -61.96853638, 42.77472687, -2.44852543, -0.89437002, -2.92598605, 0.99941117, 0.02155739, 0.00725497, 0.02569136, -0.02240260, 0.99678141, -0.67212307, 87.60000610, 1210.81738281, 39.77999878, 0.00000000
1, 2.8899, 289, 0.00443616, -0.95255488, -0.32537875, 0.36624286, -0.20169489, -0.21685022, 14.92858315, -61.96853638, 42.77472687, -2.45804572, -0.89736676, -2.96171641, 0.99940103, 0.02164335, 0.00727222, 0.02600414, -0.02005596, 0.99528056, -0.67358601, 87.60000610, 1210.81738281, 39.77999878, 0.00000000
1, 2.8999, 290, 0.00063480, -0.94794744, -0.32726410, 0.25623944, 0.08934469, -0.22797322, 15.18453217, -63.06801224, 42.90795135, -2.45548320, -0.89491916, -2.96164703, 0.99940181, 0.02162045, 0.00725147, 0.02600292, -0.01626940, 0.99080443, -0.67169476, 87.60000610, 1210.81738281, 39.77999878, 0.00000000
1, 2.9099, 291, -0.00211763, -0.94260365, -0.32648665, 0.52692670, 0.14549226, -0.38582581, 14.19729233, -64.60728455, 42.81278610, -2.45021605, -0.89080411, -2.96161532, 0.99940312, 0.02157359, 0.00721678, 0.02600155, -0.01345176, 0.98538464, -0.67247653, 87.60000610, 1210.81738281, 39.77999878, 0.00000000
1, 2.9199, 292, -0.00105725, -0.94307464, -0.32657075, 0.25872356, -0.23713109, -0.19968800, 15.22109699, -62.98005676, 42.85084915, -2.44764304, -0.88967276, -2.96455884, 0.99940294, 0.02155108, 0.00720694, 0.02602684, -0.01447601, 0.98579121, -0.67239571, 87.60000610, 1210.81738281, 39.77999878, 0.00000000
1, 2.9299, 293, 0.00147583, -0.94685262, -0.32629323, 0.58118409, -0.44301099, -0.04679824, 14.74575996, -62.23241043, 42.52730942, -2.44185305, -0.89066237, -2.96900845, 0.99940300, 0.02150108, 0.00721605, 0.02606547, -0.01701348, 0.98949468, -0.67267632, 87.60000610, 1210.81738281, 39.77999878, 0.00000000
1, 2.9399, 294, 0.00402133, -0.95154393, -0.32214534, 0.82927871, -0.30582502, 0.07837498, 14.74575996, -62.23241043, 42.52730942, -2.42783904, -0.88447386, -3.00557709, 0.99939764, 0.02137976, 0.00715844, 0.02638239, -0.01955218, 0.99403203, -0.67683083, 87.60000610, 1210.81738281, 39.77999878, 0.00000000
1, 2.9499, 295, 0.00571705, -0.95750839, -0.32124650, 0.50517404, -0.18857454, 0.09941003, 14.92858315, -62.89209366, 42.66053009, -2.42279339, -0.88602692, -3.00713921, 0.99939811, 0.02133620, 0.00717286, 0.02639598, -0.02117487, 0.99980152, -0.67773920, 87.60000610, 1210.81738281, 39.77999878, 0.00000000
1, 2.9599, 296, 0.00784134, -0.95725101, -0.32405218, -0.05186849, -0.03827428, 0.08669606, 14.63606358, -63.85964203, 42.73666000, -2.42332220, -0.88696915, -3.00720453, 0.99939799, 0.02134104, 0.00718094, 0.02639676, -0.02331556, 0.99951583, -0.67493439, 87.60000610, 1210.81738281, 39.77999878, 0.00000000
1, 2.9699, 297, 0.00553229, -0.95738876, -0.32521680, -0.23436323, 0.38999784, 0.04352345, 14.59950256, -62.62821960, 42.75569153, -2.42565203, -0.88612449, -3.00332022, 0.99939853, 0.02136092, 0.00717376, 0.02636287, -0.02100614, 0.99969804, -0.67376792, 87.60000610, 1210.81738281, 39.77999878, 0.00000000
1, 2.9799, 298, 0.00430727, -0.95669252, -0.32802510, 0.14499119, 0.27488866, -0.08310553, 14.74575996, -62.89209366, 42.81278610, -2.42418861, -0.88446021, -3.00101113, 0.99939936, 0.02134763, 0.00716002, 0.02634233, -0.01975078, 0.99899757, -0.67096031, 87.60000610, 1210.81738281, 39.77999878, 0.00000000
1, 2.9899, 299, 0.00464883, -0.95328587, -0.32719699, 0.33282614, -0.38979706, -0.27343756, 14.74575996, -62.89209366, 42.81278610, -2.42408109, -0.87596810, -3.03875804, 0.99939132, 0.02134710, 0.00707895, 0.02666998, -0.02003498, 0.99555469, -0.67179078, 87.60000610, 1210.81738281, 39.77999878, 0.00000000
1, 2.9999, 300, 0.00777279, -0.95452416, -0.32104883, 0.21199284, -0.90536505, -0.28390703, 14.41668034, -61.35282516, 42.85084915, -2.42199707, -0.87619221, -3.04829168, 0.99938947, 0.02132956, 0.00707961, 0.02675304, -0.02305816, 0.99679315, -0.67794049, 87.60000610, 1210.81738281, 39.77999878, 0.00000000
1, 3.0099, 301, 0.00941791, -0.95379490, -0.31933337, 0.16000320, -1.07702839, -0.30493525, 14.63606358, -62.01251602, 42.98407745, -2.42045546, -0.87677813, -3.05949235, 0.99938703, 0.02131695, 0.00708300, 0.02685073, -0.02471824, 0.99603558, -0.67965698, 87.60000610, 1210.81738281, 39.77999878, 0.00000000
1, 3.0199, 302, 0.00635877, -0.95294839, -0.31782228, 0.48751909, -1.13823569, -0.60605544, 15.65986919, -62.23241043, 43.00310516, -2.41564631, -0.87470365, -3.07230186, 0.99938518, 0.02127532, 0.00706365, 0.02696178, -0.02164844, 0.99512511, -0.68117082, 87.60000610, 1210.81738281, 39.77999878, 0.00000000
1, 3.0299, 303, 0.00776723, -0.95261037, -0.31666607, 0.52672869, -1.29003692, -0.74999326, 14.08759975, -63.99157715, 42.58440399, -2.41042733, -0.87174618, -3.08703303, 0.99938285, 0.02123001, 0.00703636, 0.02708939, -0.02299667, 0.99468762, -0.68233228, 87.60000610, 1210.81738281, 39.77999878, 0.00000000
1, 3.0399, 304, 0.00743621, -0.94929248, -0.31664589, 0.36370072, -1.37993252, -0.57560128, 14.08759975, -63.99157715, 42.58440399, -2.39965081, -0.86140788, -3.13489747, 0.99937415, 0.02113652, 0.00693992, 0.02750430, -0.02259524, 0.99127978, -0.68235731, 87.60000610, 1210.81738281, 39.77999878, 0.00000000
1, 3.0499, 305, 0.00695336, -0.94619113, -0.31656736, 0.37678221, -1.38552296, -0.22419271, 14.45324135, -62.67220306, 42.85084915, -2.39595771, -0.86373913, -3.14880013, 0.99937129, 0.02110571, 0.00695857, 0.02762574, -0.02200820, 0.98801720, -0.68244410, 87.60000610, 1210.81738281, 39.77999878, 0.00000000
1, 3.0599, 306, 0.00481693, -0.94518936, -0.31830657, 0.56825286, -0.99204046, -0.05830134, 15.18453217, -65.17901611, 42.66053009, -2.39031887, -0.86637735, -3.15849710, 0.99936974, 0.02105775, 0.00698116, 0.02771044, -0.01992076, 0.98693019, -0.68070781, 87.60000610, 1210.81738281, 39.77999878, 0.00000000
1, 3.0699, 307, 0.00146483, -0.94629389, -0.31512040, 0.59726197, -0.42772335, 0.07652216, 15.29422855, -62.84811401, 42.94601059, -2.38436747, -0.86847591, -3.16241741, 0.99936980, 0.02100659, 0.00700018, 0.02774465, -0.01661411, 0.98793370, -0.68389738, 87.60100555, 1210.72375488, 39.77999878, 0.00000000
1, 3.0799, 308, 0.00071231, -0.95264655, -0.31311268, 0.40094730, -0.28946978, -0.07817534, 14.12416077, -65.35493469, 43.07923508, -2.38037038, -0.86867070, -3.16548347, 0.99936974, 0.02097196, 0.00700229, 0.02777117, -0.01587893, 0.99419898, -0.68590850, 87.60100555, 1210.72375488, 39.77999878, 0.00000000
1, 3.0899, 309, 0.00518040, -0.95689380, -0.31023288, 0.51059532, -0.16483109, -0.30440852, 14.89201736, -63.06801224, 42.83182144, -2.32886291, -0.85734087, -3.20260954, 0.99937081, 0.02052228, 0.00690931, 0.02808982, -0.02027896, 0.99816525, -0.68880093, 87.60100555, 1210.72375488, 39.77999878, 0.00000000
1, 3.0999, 310, 0.00856761, -0.95719343, -0.31130567, 0.67286342, -0.17985804, -0.35795581, 14.89201736, -63.06801224, 42.83182144, -2.32214308, -0.85452700, -3.20558953, 0.99937159, 0.02046317, 0.00688588, 0.02811491, -0.02349927, 0.99774492, -0.68776017, 87.60100555, 1210.72375488, 39.77999878, 0.00000000
1, 3.1099, 311, 0.01295796, -0.95789349, -0.31313962, 0.42390636, -0.49143726, -0.31100971, 14.56293774, -61.74863815, 42.66053009, -2.31792426, -0.85314965, -3.21131563, 0.99937093, 0.02042639, 0.00687389, 0.02816436, -0.02786007, 0.99835747, -0.68593019, 87.60100555, 1210.72375488, 39.77999878, 0.00000000
1, 3.1199, 312, 0.01618880, -0.95558864, -0.31521082, 0.53073597, -0.59551555, -0.19047655, 14.27041817, -62.32036591, 42.56536865, -2.31263828, -0.85324943, -3.21767879, 0.99937034, 0.02038069, 0.00687492, 0.02821955, -0.03107491, 0.99597669, -0.68386233, 87.60100555, 1210.72375488, 39.77999878, 0.00000000
1, 3.1299, 313, 0.01515928, -0.95895624, -0.31527698, 0.41776875, -0.22129111, -0.04163679, 14.30698395, -62.45230865, 43.07923508, -2.30847549, -0.85356456, -3.21998739, 0.99937046, 0.02034460, 0.00687829, 0.02823949, -0.03005338, 0.99925584, -0.68379962, 87.60100555, 1210.72375488, 39.77999878, 0.00000000
1, 3.1399, 314, 0.00862101, -0.96013719, -0.31212619, 0.44908398, 0.22438924, 0.00279381, 14.67262936, -63.06801224, 43.04117203, -2.26684976, -0.84517729, -3.25293946, 0.99937022, 0.01998149, 0.00680965, 0.02852294, -0.02347712, 1.00021040, -0.68696004, 87.60100555, 1210.72375488, 39.77999878, 0.00000000
1, 3.1499, 315, 0.00036729, -0.96247715, -0.31254080, 0.95178813, 0.40243518, -0.15320593, 14.67262936, -63.06801224, 43.04117203, -2.25731206, -0.84245169, -3.24981141, 0.99937284, 0.01989746, 0.00678880, 0.02849463, -0.01509121, 1.00192523, -0.68657243, 87.60100555, 1210.72375488, 39.77999878, 0.00000000
1, 3.1599, 316, -0.00332012, -0.96182430, -0.31685323, 0.86162889, 0.34912720, -0.08373754, 14.27041817, -61.96853638, 42.67956161, -2.24867916, -0.84055328, -3.24693704, 0.99937516, 0.01982153, 0.00677489, 0.02846873, -0.01135945, 1.00111008, -0.68226701, 87.60100555, 1210.72375488, 39.77999878, 0.00000000
1, 3.1699, 317, -0.00249816, -0.95551908, -0.31966048, 0.41413727, 0.31187761, -0.11830805, 15.00170898, -62.67220306, 42.79375458, -2.24453402, -0.83844501, -3.24443626, 0.99937665, 0.01978471, 0.00675796, 0.02844632, -0.01215118, 0.99469590, -0.67946446, 87.60100555, 1210.72375488, 39.77999878, 0.00000000
1, 3.1799, 318, 0.00104826, -0.95026940, -0.32063025, -0.23323682, 0.37399131, -0.02712976, 14.96514320, -62.54026413, 43.34568787, -2.24685431, -0.83699900, -3.24093914, 0.99937725, 0.01980439, 0.00674538, 0.02841571, -0.01566074, 0.98944831, -0.67849517, 87.60100555, 1210.72375488, 39.77999878, 0.00000000
1, 3.1899, 319, 0.00575805, -0.94326347, -0.31972861, -0.01998798, -0.11204845, 0.41903529, 14.23385715, -64.21147156, 43.15536499, -2.25013900, -0.82999343, -3.27381730, 0.99936903, 0.01983324, 0.00667778, 0.02870145, -0.02035608, 0.98249286, -0.67939496, 87.60100555, 1210.72375488, 39.77999878, 0.00000000
1, 3.1999, 320, 0.00857494, -0.93666244, -0.31020460, 1.55463266, -0.24233474, 0.74546599, 14.23385715, -64.21147156, 43.15536499, -2.23461485, -0.83786058, -3.27404666, 0.99937105, 0.01969981, 0.00675024, 0.02870387, -0.02314300, 0.97576964, -0.68892419, 87.60100555, 1210.72375488, 39.77999878, 0.00000000
1, 3.2099, 321, 0.01359597, -0.93420434, -0.30471689, 1.61441839, 0.85371310, 0.90895253, 15.00170898, -64.16749573, 42.48923874, -2.21841669, -0.84377110, -3.26338100, 0.99937606, 0.01955937, 0.00680766, 0.02861089, -0.02828682, 0.97299743, -0.69442242, 87.60100555, 1210.72375488, 39.77999878, 0.00000000
1, 3.2199, 322, 0.01883519, -0.93815744, -0.29844201, 0.58077186, 2.16703081, 0.90456957, 14.63606358, -62.67220306, 42.52730942, -2.21250939, -0.84546942, -3.24006987, 0.99938285, 0.01950688, 0.00682792, 0.02840752, -0.03358831, 0.97678685, -0.70070267, 87.60100555, 1210.72375488, 39.77999878, 0.00000000
1, 3.2299, 323, 0.01881553, -0.94143701, -0.29732731, 0.35430995, 3.29627895, 0.99931687, 15.00170898, -62.14445114, 42.35601807, -2.20880413, -0.84447342, -3.20571327, 0.99939191, 0.01947228, 0.00682599, 0.02810749, -0.03356081, 0.98000139, -0.70182002, 87.60100555, 1210.72375488, 39.77999878, 0.00000000
1, 3.2399, 324, 0.02225853, -0.94292527, -0.28456223, 0.49278355, 3.65560699, 1.12949574, 15.14796638, -62.89209366, 42.90795135, -2.18211913, -0.82865119, -3.20015836, 0.99939895, 0.01923539, 0.00669547, 0.02805486, -0.03691427, 0.98131096, -0.71459329, 87.60100555, 1210.72375488, 39.77999878, 0.00000000
1, 3.2499, 325, 0.02835037, -0.93749249, -0.28313369, 0.51948518, 3.55837607, 1.84808052, 15.14796638, -62.89209366, 42.90795135, -2.17672920, -0.83489621, -3.16065788, 0.99940902, 0.01918756, 0.00675787, 0.02771107, -0.04286935, 0.97550559, -0.71603805, 87.60100555, 1210.72375488, 39.77999878, 0.00000000
1, 3.2599, 326, 0.03536851, -0.93684000, -0.28714457, 0.01972621, 3.51879930, 2.99136758, 14.45324135, -63.24393463, 42.90795135, -2.17633557, -0.85210162, -3.11780787, 0.99941820, 0.01918566, 0.00691520, 0.02734015, -0.05011463, 0.97479570, -0.71202606, 87.60100555, 1210.72375488, 39.77999878, 0.00000000
1, 3.2699, 327, 0.03800983, -0.94944113, -0.29779041, -0.93324125, 4.28475094, 3.97719431, 14.56293774, -63.33188629, 42.94601059, -2.18544245, -0.87620580, -3.06436658, 0.99942768, 0.01926746, 0.00713224, 0.02687857, -0.05313550, 0.98750103, -0.70137060, 87.60100555, 1210.72375488, 39.77999878, 0.00000000
1, 3.2799, 328, 0.03188414, -0.98060006, -0.30940348, -0.60398686, 4.89804649, 4.41096020, 14.56293774, -62.45230865, 43.04117203, -2.19127011, -0.90248412, -3.00379395, 0.99943882, 0.01932049, 0.00737028, 0.02635497, -0.04746462, 1.01881146, -0.68974471, 87.60100555, 1210.72375488, 39.77999878, 0.00000000
1, 3.2899, 329, 0.01711135, -1.00234711, -0.31879741, 1.19353521, 4.91727257, 4.08945417, 13.97790337, -62.23241043, 43.06019974, -2.17440057, -0.92036980, -2.97507119, 0.99944681, 0.01917553, 0.00753496, 0.02610630, -0.03309801, 1.04045153, -0.68034840, 87.60100555, 1210.72375488, 39.77999878, 0.00000000
1, 3.2999, 330, 0.00648349, -1.02366114, -0.30691278, 1.89734530, 5.29213715, 3.53267574, 13.97790337, -62.23241043, 43.06019974, -2.15523553, -0.93710452, -2.91405201, 0.99946254, 0.01900805, 0.00769541, 0.02557555, -0.02273951, 1.06136870, -0.69224381, 87.60100555, 1210.72375488, 39.77999878, 0.00000000
1, 3.3099, 331, 0.00259096, -1.02878165, -0.29096165, 0.28850025, 5.75348949, 2.87932181, 14.56293774, -63.28790665, 43.26955795, -2.15215898, -0.94618911, -2.85042024, 0.99947643, 0.01897890, 0.00778587, 0.02502182, -0.01905504, 1.06634033, -0.70819718, 87.60100555, 1210.72375488, 39.77999878, 0.00000000
1, 3.3199, 332, 0.01097375, -1.01676023, -0.28364563, 0.62642598, 6.70644236, 2.47644329, 14.41668034, -64.82717896, 43.68825912, -2.14569259, -0.94843829, -2.77909207, 0.99949276, 0.01891812, 0.00781868, 0.02439961, -0.02751818, 1.05424428, -0.71551466, 87.60100555, 1210.72375488, 39.77999878, 0.00000000
1, 3.3299, 333, 0.02376733, -0.98780686, -0.27686772, 1.02677143, 7.87434626, 2.60524201, 13.61225796, -63.15597153, 43.36471558, -2.13518500, -0.94823295, -2.69635510, 0.99951178, 0.01882078, 0.00783271, 0.02367720, -0.04032282, 1.02511728, -0.72229886, 87.60100555, 1210.72375488, 39.77999878, 0.00000000
1, 3.3399, 334, 0.03361270, -0.96320117, -0.27562997, -1.36803067, 9.26560211, 2.43087935, 13.64882374, -62.98005676, 43.26955795, -2.13791490, -0.93020815, -2.63014603, 0.99952620, 0.01883648, 0.00768581, 0.02309698, -0.05004822, 1.00050998, -0.72353864, 87.60100555, 1210.72375488, 39.77999878, 0.00000000
1, 3.3499, 335, 0.04423740, -0.94820166, -0.27543715, -4.86940718, 9.64868736, 2.51996040, 13.64882374, -62.98005676, 43.26955795, -2.18628740, -0.92349792, -2.52969933, 0.99953854, 0.01925038, 0.00763441, 0.02222297, -0.06039096, 0.98597848, -0.72371852, 87.60100555, 1210.72375488, 39.77999878, 0.00000000
1, 3.3599, 336, 0.05640375, -0.94677275, -0.26760191, -7.73471498, 8.67704391, 2.85986614, 14.23385715, -62.67220306, 43.02214050, -2.26333165, -0.92296326, -2.43682694, 0.99954307, 0.01991613, 0.00763095, 0.02141792, -0.07250732, 0.98572999, -0.73150915, 87.60100555, 1210.72375488, 39.77999878, 0.00000000
1, 3.3699, 337, 0.06694795, -0.94432521, -0.26014629, -8.12848186, 7.89462376, 3.30165792, 14.12416077, -64.07953644, 43.61213303, -2.34434795, -0.92898309, -2.34988737, 0.99954426, 0.02061808, 0.00768396, 0.02066603, -0.08311191, 0.98471367, -0.73890698, 87.60100555, 1210.72375488, 39.77999878, 0.00000000
1, 3.3799, 338, 0.06966529, -0.94317770, -0.24700102, -6.61340427, 6.66857719, 3.44702840, 14.08759975, -64.95912170, 43.34568787, -2.41024876, -0.94019872, -2.27437663, 0.99954480, 0.02118978, 0.00778386, 0.02001384, -0.08599666, 0.98481691, -0.75199819, 87.60100555, 1210.72375488, 39.77999878, 0.00000000
1, 3.3899, 339, 0.06207829, -0.94361943, -0.24927163, -4.96571493, 6.95653820, 3.41288447, 14.96514320, -63.06801224, 43.51697159, -2.44336796, -0.93291205, -2.22543573, 0.99954772, 0.02147412, 0.00772369, 0.01958785, -0.07853020, 0.98615253, -0.74968803, 87.60100555, 1210.72375488, 39.77999878, 0.00000000
1, 3.3999, 340, 0.04530986, -0.94745934, -0.25735903, -3.95272660, 8.58350849, 3.03968883, 14.34354877, -63.68372726, 43.30761719, -2.48261213, -0.93402541, -2.13361764, 0.99955553, 0.02181042, 0.00774417, 0.01878980, -0.06161315, 0.99051547, -0.74158061, 87.60100555, 1210.72375488, 39.77999878, 0.00000000
1, 3.4099, 341, 0.03515376, -0.95442557, -0.26204285, -4.25304222, 8.56912136, 2.72389579, 14.34354877, -63.68372726, 43.30761719, -2.52486110, -0.93212456, -2.04289412, 0.99956214, 0.02217252, 0.00773822, 0.01800093, -0.05142642, 0.99819684, -0.73686612, 87.60100555, 1210.72375488, 39.77999878, 0.00000000
1, 3.4199, 342, 0.03285083, -0.96358883, -0.26902583, -3.77359414, 6.42123270, 3.13430786, 14.52637196, -63.41984940, 43.38374710, -2.56238580, -0.94098812, -1.97126985, 0.99956524, 0.02249632, 0.00782370, 0.01738042, -0.04919244, 1.00805199, -0.72985148, 87.60100555, 1210.72375488, 39.77999878, 0.00000000
1, 3.4299, 343, 0.01968451, -0.96878082, -0.26511467, -2.81055546, 5.60774803, 4.02833080, 14.45324135, -62.54026413, 43.57406616, -2.59030795, -0.96091235, -1.90462959, 0.99956816, 0.02273818, 0.00800649, 0.01680494, -0.03631695, 1.01379478, -0.73373318, 87.60100555, 1210.72375488, 39.77999878, 0.00000000
1, 3.4399, 344, 0.00211300, -0.98371881, -0.26009074, -2.96373630, 7.08243608, 5.07934523, 14.01446915, -62.40832901, 43.36471558, -2.60315466, -0.98451489, -1.85000479, 0.99957162, 0.02284971, 0.00822138, 0.01633400, -0.01914686, 1.02914524, -0.73873174, 87.60100555, 1210.72375488, 39.77999878, 0.00000000
1, 3.4499, 345, -0.01555347, -1.00072658, -0.26917464, -1.54387879, 7.73518038, 5.72154331, 14.38011456, -63.37586975, 43.68825912, -2.61843276, -1.01352978, -1.75799131, 0.99957907, 0.02298020, 0.00849075, 0.01553822, -0.00193893, 1.04634690, -0.72963107, 87.60100555, 1210.72375488, 39.77999878, 0.00000000
1, 3.4599, 346, -0.01973064, -1.00828707, -0.27708966, 1.16327405, 8.46293831, 6.58989716, 14.38011456, -63.37586975, 43.68825912, -2.60667491, -1.04841411, -1.65677834, 0.99959195, 0.02287447, 0.00881685, 0.01466134, 0.00167561, 1.05387783, -0.72170740, 87.60100555, 1210.72375488, 39.77999878, 0.00000000
1, 3.4699, 347, -0.00982836, -1.01571155, -0.29229590, 0.02031913, 7.34985399, 6.95671606, 14.63606358, -63.37586975, 43.76438904, -2.60644293, -1.09039426, -1.56470966, 0.99959993, 0.02287028, 0.00920146, 0.01386648, -0.00893230, 1.06112885, -0.70649600, 87.60100555, 1210.72375488, 39.77999878, 0.00000000
1, 3.4799, 348, 0.00122828, -1.01406443, -0.30357838, -4.21292686, 9.59982967, 6.91150141, 13.68538952, -62.67220306, 43.51697159, -2.64860058, -1.12456286, -1.45064938, 0.99960178, 0.02323257, 0.00951754, 0.01288176, -0.02065103, 1.05993712, -0.69518000, 87.60100555, 1210.72375488, 39.77999878, 0.00000000
1, 3.4899, 349, -0.00482265, -0.99910790, -0.29667592, -7.31949186, 14.15728188, 6.91135216, 14.01446915, -62.14445114, 43.74535370, -2.71667194, -1.14227271, -1.31820989, 0.99960053, 0.02381710, 0.00969191, 0.01173577, -0.01502687, 1.04604661, -0.70202458, 87.60100555, 1210.72375488, 39.77999878, 0.00000000
1, 3.4999, 350, -0.01010745, -0.98751706, -0.28628156, -9.92862892, 16.72307968, 7.21937513, 14.38011456, -63.68372726, 43.63116455, -2.81609178, -1.15572989, -1.13462925, 0.99959576, 0.02466993, 0.00983864, 0.01014566, -0.00996573, 1.03595591, -0.71234274, 87.60100555, 1210.72375488, 39.77999878, 0.00000000
1, 3.5099, 351, 0.01047377, -0.98803157, -0.29267567, -11.57814693, 16.29055023, 8.76222038, 14.38011456, -63.68372726, 43.63116455, -2.93209696, -1.18482232, -0.94970155, 0.99958277, 0.02566799, 0.01012357, 0.00854897, -0.03092309, 1.03840506, -0.70584524, 87.60100555, 1210.72375488, 39.77999878, 0.00000000
1, 3.5199, 352, 0.04264899, -0.99430817, -0.29793832, -12.72261524, 12.14162827, 11.15703678, 13.97790337, -64.91514587, 43.57406616, -3.05967617, -1.24983406, -0.79571271, 0.99955797, 0.02677101, 0.01071712, 0.00723213, -0.06397706, 1.04682934, -0.70045352, 87.60100555, 1210.72375488, 39.77999878, 0.00000000
1, 3.5299, 353, 0.04090132, -0.95343125, -0.29923356, -9.89392567, 8.34802246, 12.59793758, 14.67262936, -63.46382904, 44.03083801, -3.15911055, -1.34076643, -0.67313570, 0.99953246, 0.02763128, 0.01153356, 0.00619406, -0.06368789, 1.00795257, -0.69901884, 87.60100555, 1210.72375488, 39.77999878, 0.00000000
1, 3.5399, 354, 0.04167341, -0.93797803, -0.30222195, -5.27561951, 8.51351833, 13.07947922, 13.72195435, -62.36434555, 43.87857819, -3.20889807, -1.42506444, -0.57413369, 0.99951643, 0.02805902, 0.01229041, 0.00535607, -0.06606312, 0.99366355, -0.69592839, 87.60100555, 1210.72375488, 39.77999878, 0.00000000
1, 3.5499, 355, 0.04175983, -0.94026798, -0.31177562, -4.62510443, 9.99443626, 13.07346725, 13.75851536, -65.70676422, 44.12599564, -3.25612211, -1.51476848, -0.43527630, 0.99950033, 0.02845869, 0.01310512, 0.00417218, -0.06761906, 0.99673051, -0.68629408, 87.60100555, 1210.72375488, 39.77999878, 0.00000000
1, 3.5599, 356, 0.01644794, -0.92234653, -0.32361561, -5.51009607, 10.08778000, 12.18164349, 13.75851536, -65.70676422, 44.12599564, -3.31238365, -1.59562314, -0.29827371, 0.99948096, 0.02893530, 0.01384290, 0.00300401, -0.04378555, 0.97973895, -0.67436159, 87.60100555, 1210.72375488, 39.77999878, 0.00000000
1, 3.5699, 357, -0.02828696, -0.90446979, -0.33320662, -5.89416695, 8.20101643, 8.76811695, 13.75851536, -65.79473114, 44.06889725, -3.37236834, -1.65052927, -0.19037499, 0.99946123, 0.02944603, 0.01434794, 0.00208426, -0.00020422, 0.96288443, -0.66467905, 87.60100555, 1210.72375488, 39.77999878, 0.00000000
1, 3.5799, 358, -0.06422357, -0.90176976, -0.32299542, -6.67077494, 7.14566851, 4.68771696, 14.41668034, -65.26697540, 44.10696411, -3.43990827, -1.67046595, -0.10597569, 0.99944246, 0.03002462, 0.01454272, 0.00136182, 0.03517056, 0.96129286, -0.67480856, 87.60100555, 1210.72375488, 39.77999878, 0.00000000
1, 3.5899, 359, -0.06737036, -0.90709090, -0.32885242, -6.75319862, 6.48106432, 3.30288744, 14.08759975, -64.16749573, 43.76438904, -3.50890279, -1.69300151, -0.06033483, 0.99942178, 0.03062059, 0.01475064, 0.00097853, 0.03807061, 0.96781558, -0.66887188, 87.60100555, 1210.72375488, 39.77999878, 0.00000000
1, 3.5999, 360, -0.06286778, -0.89011842, -0.32206634, -6.50020647, 3.38565087, 3.83469868, 14.05103493, -63.81566238, 43.80245209, -3.57442451, -1.71749318, -0.01418773, 0.99940121, 0.03118602, 0.01497624, 0.00059116, 0.03308208, 0.95200855, -0.67557204, 87.60100555, 1210.72375488, 39.77999878, 0.00000000
1, 3.6099, 361, -0.06283318, -0.87436450, -0.31167635, -5.49183846, 1.31800354, 4.84284258, 14.05103493, -63.81566238, 43.80245209, -3.62972164, -1.75846410, 0.01578248, 0.99938077, 0.03166414, 0.01534155, 0.00034833, 0.03244493, 0.93731958, -0.68587720, 87.60100555, 1210.72375488, 39.77999878, 0.00000000
1, 3.6199, 362, -0.06223250, -0.85576540, -0.31125954, -2.38501287, 1.29213059, 5.81717730, 14.08759975, -63.37586975, 44.24018860, -3.65401959, -1.80870020, 0.04826391, 0.99936724, 0.03187131, 0.01578863, 0.00008228, 0.03099869, 0.91936654, -0.68622696, 87.60100555, 1210.72375488, 39.77999878, 0.00000000
1, 3.6299, 363, -0.06432430, -0.83666342, -0.30449945, 0.25686130, 0.59907132, 3.26324606, 14.01446915, -64.34340668, 44.16406250, -3.65169835, -1.83732021, 0.06498907, 0.99936390, 0.03184848, 0.01604288, -0.00005594, 0.03239494, 0.90035796, -0.69295913, 87.60100555, 1210.72375488, 39.77999878, 0.00000000
1, 3.6399, 364, -0.03874529, -0.83185446, -0.31526226, 1.09683073, 0.57881349, -0.37845969, 13.61225796, -64.73921967, 43.89761353, -3.65177560, -1.83889246, 0.03826613, 0.99936372, 0.03185289, 0.01604916, 0.00017756, 0.00669241, 0.89546835, -0.68219745, 87.60100555, 1210.72375488, 39.77999878, 0.00000000
1, 3.6499, 365, -0.02666239, -0.84645772, -0.33338833, 3.83598733, -0.27790630, -3.37558651, 13.64882374, -64.82717896, 44.25922012, -3.61319470, -1.80815983, 0.02338406, 0.99937868, 0.03151870, 0.01577710, 0.00029349, -0.00513935, 0.90975475, -0.66409957, 87.60100555, 1210.72375488, 39.77999878, 0.00000000
1, 3.6599, 366, -0.03167567, -0.87836128, -0.34705609, 8.03348255, 1.94872940, -7.45494270, 13.64882374, -64.82717896, 43.66922760, -3.53265572, -1.73153102, 0.01478426, 0.99941087, 0.03081788, 0.01510668, 0.00033680, 0.00088593, 0.94053423, -0.65053409, 87.60100555, 1210.72375488, 39.77999878, 0.00000000
1, 3.6699, 367, -0.04059167, -0.94052625, -0.37701377, 10.48971844, 6.39229298, -11.51751900, 13.64882374, -63.41984940, 43.66922760, -3.42776394, -1.60164785, 0.03386311, 0.99945515, 0.02990136, 0.01397914, 0.00012267, 0.01172742, 1.00101531, -0.62073731, 87.60100555, 1210.72375488, 39.77999878, 0.00000000
1, 3.6799, 368, -0.05460086, -1.00461662, -0.39768729, 18.04250526, 12.81488705, -14.53453922, 13.64882374, -63.50780487, 43.63116455, -3.24756098, -1.42187619, 0.10214525, 0.99952149, 0.02832327, 0.01242816, -0.00053936, 0.02853178, 1.06253874, -0.60029244, 87.60100555, 1210.72375488, 39.77999878, 0.00000000
1, 3.6899, 369, -0.05206420, -1.11576605, -0.39162585, 21.38504791, 16.45582771, -17.35106277, 14.12416077, -65.00309753, 44.03083801, -3.03286672, -1.20348322, 0.17604667, 0.99959385, 0.02644604, 0.01053914, -0.00125775, 0.02959472, 1.17009687, -0.60664320, 87.60100555, 1210.72375488, 39.77999878, 0.00000000
1, 3.6999, 370, -0.06227627, -1.20651174, -0.35085058, 30.47785187, 20.35307884, -17.33210754, 14.01446915, -65.35493469, 44.56372833, -2.72770977, -0.97316748, 0.30525845, 0.99967772, 0.02377794, 0.00855335, -0.00246090, 0.04379287, 1.25629783, -0.64773643, 87.60100555, 1210.72375488, 39.77999878, 0.00000000
1, 3.7099, 371, -0.06627251, -1.27731240, -0.32829469, 39.60164261, 24.99284172, -12.28781986, 14.92858315, -64.34340668, 44.94437027, -2.33062601, -0.77648795, 0.49431345, 0.99976158, 0.02030726, 0.00686234, -0.00417489, 0.05153467, 1.32057285, -0.67065805, 87.60100555, 1210.72375488, 39.77999878, 0.00000000
1, 3.7199, 372, -0.06903565, -1.28727639, -0.32335028, 27.94890404, 24.71525764, -0.76178646, 14.92858315, -64.34340668, 44.94437027, -2.04946065, -0.69110441, 0.72076279, 0.99980283, 0.01784535, 0.00614239, -0.00618082, 0.05659860, 1.32460737, -0.67587441, 87.60100555, 1210.72375488, 39.77999878, 0.00000000
1, 3.7299, 373, -0.08634274, -1.18998337, -0.27730450, 7.88018036, 29.84562683, 12.90762138, 14.41668034, -62.36434555, 45.53436661, -1.96829617, -0.71992356, 1.04306531, 0.99979240, 0.01711755, 0.00643762, -0.00899291, 0.07409106, 1.22458506, -0.72202146, 87.60100555, 1210.72375488, 39.77999878, 0.00000000
1, 3.7399, 374, -0.09252667, -1.14722085, -0.28448069, -12.16026974, 34.66636658, 23.45907402, 14.19729233, -64.73921967, 45.61049652, -2.08506203, -0.83481234, 1.43203068, 0.99973160, 0.01810166, 0.00751063, -0.01236156, 0.07884612, 1.18253255, -0.71480161, 87.60100555, 1210.72375488, 39.77999878, 0.00000000
1, 3.7499, 375, -0.05836853, -1.13070107, -0.30315790, -34.65201569, 29.19796562, 32.41302109, 14.23385715, -65.44289398, 45.68662262, -2.43056321, -1.04884970, 1.81879210, 0.99961042, 0.02106028, 0.00948620, -0.01567295, 0.04156939, 1.17064881, -0.69590038, 87.60100555, 1210.72375488, 39.77999878, 0.00000000
1, 3.7599, 376, 0.00353828, -1.09800458, -0.28492466, -39.12654495, 11.36094856, 39.22366333, 13.72195435, -65.66278839, 45.45823669, -2.82254553, -1.38261867, 2.06130672, 0.99946749, 0.02440612, 0.01250269, -0.01768345, -0.02539561, 1.14480853, -0.71373713, 87.60100555, 1210.72375488, 39.77999878, 0.00000000
1, 3.7699, 377, 0.00127028, -1.04613197, -0.27817774, -24.94894981, 3.21962690, 42.27867889, 13.72195435, -65.66278839, 45.45823669, -3.07385707, -1.77084255, 2.23615265, 0.99933875, 0.02651151, 0.01596769, -0.01908913, -0.02960912, 1.09818268, -0.72006208, 87.60100555, 1210.72375488, 39.77999878, 0.00000000
1, 3.7799, 378, -0.00637664, -0.97487468, -0.31171876, -25.07504272, -4.94674063, 41.05268860, 13.21005249, -65.35493469, 45.13468933, -3.32647467, -2.17407131, 2.33159876, 0.99920315, 0.02862783, 0.01954971, -0.01978287, -0.02891053, 1.03114653, -0.68607032, 87.60100555, 1210.72375488, 39.77999878, 0.00000000
1, 3.7899, 379, -0.01175946, -0.90273106, -0.30381435, -29.68919945, -12.90795517, 38.77244949, 12.77127552, -66.01461792, 45.03953552, -3.62310076, -2.57971716, 2.33119416, 0.99905467, 0.03114001, 0.02313736, -0.01961532, -0.03061952, 0.96390140, -0.69340986, 87.60100555, 1210.72375488, 39.77999878, 0.00000000
1, 3.7999, 380, -0.01478028, -0.84810930, -0.26459521, -29.98576927, -19.70925713, 34.76314163, 12.91753292, -66.76226807, 45.32501221, -3.92174006, -2.97355032, 2.27130342, 0.99889934, 0.03368477, 0.02660385, -0.01891366, -0.03454123, 0.91449791, -0.73197603, 87.60100555, 1210.72375488, 39.77999878, 0.00000000
1, 3.8099, 381, -0.02543862, -0.78443038, -0.24659403, -25.14035225, -27.82396317, 30.62259483, 12.69814968, -67.77378845, 44.94437027, -4.16831493, -3.35717201, 2.12175536, 0.99875820, 0.03580355, 0.02994130, -0.01742944, -0.03061982, 0.85549301, -0.74929893, 87.60100555, 1210.72375488, 39.77999878, 0.00000000
1, 3.8199, 382, -0.04762392, -0.71448833, -0.21670491, -17.12972641, -34.41936493, 27.43595505, 12.69814968, -67.77378845, 44.94437027, -4.33070850, -3.73474407, 1.89887369, 0.99863857, 0.03721874, 0.03318401, -0.01531836, -0.01506620, 0.78888345, -0.77854955, 87.60100555, 1210.72375488, 39.77999878, 0.00000000
1, 3.8299, 383, -0.05412592, -0.64413130, -0.23036347, -18.55909157, -38.69573593, 25.90900230, 12.40563011, -67.59787750, 44.27825546, -4.50379992, -4.11377525, 1.63175476, 0.99850279, 0.03875296, 0.03641953, -0.01280895, -0.01515006, 0.72129840, -0.76424301, 87.60100555, 1210.72375488, 39.77999878, 0.00000000
1, 3.8399, 384, -0.03891253, -0.62873536, -0.21005666, -21.44308853, -37.73654556, 22.51022530, 11.45495605, -66.80625153, 43.80245209, -4.70185566, -4.45625162, 1.34639156, 0.99835271, 0.04052966, 0.03932450, -0.01013577, -0.03662608, 0.70917237, -0.78383482, 87.60100555, 1210.72375488, 39.77999878, 0.00000000
1, 3.8499, 385, -0.03841933, -0.63756996, -0.16070050, -26.81490326, -38.44835663, 17.25578117, 11.71090508, -68.16960144, 43.15536499, -4.95272064, -4.75543785, 1.05433011, 0.99818027, 0.04278679, 0.04184380, -0.00739166, -0.04259936, 0.72190237, -0.83243614, 87.60100555, 1210.72375488, 39.77999878, 0.00000000
