SensorId, TimeStamp (s), FrameNumber, AccX (g), AccY (g), AccZ (g), GyroX (deg/s), GyroY (deg/s), GyroZ (deg/s), MagX (uT), MagY (uT), MagZ (uT), EulerX (deg), EulerY (deg), EulerZ (deg), QuatW, QuatX, QuatY, QuatZ, LinAccX (g), LinAccY (g), LinAccZ (g), Pressure (kPa), Altitude (m), Temperature (degC), HeaveMotion (m)
1, -0.0001, 0, -0.03343378, -0.98120832, -0.30627525, 0.11710239, 12.05741405, 3.46941471, 13.64882374, -65.75074005, 46.35274506, -1.03579783, 0.01514198, 5.79589987, 0.99868029, 0.00903404, 0.00032502, -0.05055632, 0.03366410, 0.99930513, -0.69356102, 87.60500336, 1210.34936523, 40.11000061, 0.00000000
1, 0.0099, 1, -0.03412205, -0.98122776, -0.30172917, 0.42276224, 13.42672443, 3.83125520, 13.68538952, -66.71829224, 46.29565048, -1.03024447, 0.02130716, 5.93535042, 0.99861854, 0.00898802, 0.00027978, -0.05177211, 0.03444776, 0.99924618, -0.69810843, 87.60500336, 1210.34936523, 40.11000061, 0.00000000
1, 0.0199, 2, -0.03414915, -0.97898281, -0.29906729, 0.10423364, 14.60443401, 4.06792974, 13.75851536, -65.09105682, 46.67628860, -1.02774525, 0.02894182, 6.08674383, 0.99854934, 0.00896940, 0.00022396, -0.05309200, 0.03460378, 0.99693012, -0.70077163, 87.60500336, 1210.34936523, 40.11000061, 0.00000000
1, 0.0299, 3, -0.02669259, -0.96776563, -0.29779774, -0.08910286, 15.76540661, 4.33902597, 13.75851536, -65.09105682, 46.67628860, -1.02703691, 0.03767547, 6.25002337, 0.99847275, 0.00896706, 0.00016031, -0.05451544, 0.02729089, 0.98569679, -0.70204127, 87.60500336, 1210.34936523, 40.11000061, 0.00000000
1, 0.0399, 4, -0.01792314, -0.95804703, -0.29892457, -0.09926060, 16.10015106, 4.85586548, 13.94133854, -66.89420319, 46.50499725, -1.02889872, 0.03736513, 6.38356018, 0.99840826, 0.00898294, 0.00017437, -0.05567892, 0.01861558, 0.97597635, -0.70091450, 87.60500336, 1210.34936523, 40.11000061, 0.00000000
1, 0.0499, 5, -0.00676974, -0.95212966, -0.30039105, -0.14495294, 16.45234108, 5.33802366, 13.90477753, -66.19053650, 46.75241470, -1.02863228, 0.03880396, 6.55652571, 0.99832320, 0.00898106, 0.00017526, -0.05718598, 0.00744194, 0.97008407, -0.69944763, 87.60500336, 1210.34936523, 40.11000061, 0.00000000
1, 0.0599, 6, -0.00191736, -0.95033753, -0.29930982, -0.20816167, 16.83955383, 5.76823759, 14.01446915, -66.67430878, 47.17111969, -1.02895689, 0.03738526, 6.73453331, 0.99823308, 0.00898288, 0.00020173, -0.05873660, 0.00258504, 0.96829182, -0.70052874, 87.60500336, 1210.34936523, 40.11000061, 0.00000000
1, 0.0699, 7, -0.00185283, -0.95174891, -0.30064228, -0.23718871, 17.27708054, 6.28729582, 13.31974411, -65.88268280, 46.79048157, -1.02951896, 0.03242933, 6.91833925, 0.99813759, 0.00898483, 0.00025960, -0.06033731, 0.00245785, 0.96972430, -0.69919598, 87.60500336, 1210.34936523, 40.11000061, 0.00000000
1, 0.0799, 8, -0.00086420, -0.95035619, -0.30302143, 0.40110019, 17.62032700, 6.59139013, 14.01446915, -65.35493469, 46.63821793, -1.02366745, 0.02566680, 7.10630178, 0.99803776, 0.00892977, 0.00033008, -0.06197394, 0.00135893, 0.96827471, -0.69681787, 87.60500336, 1210.34936523, 40.11000061, 0.00000000
1, 0.0899, 9, -0.00364430, -0.94972920, -0.30480111, 1.47208548, 17.95237732, 6.73572111, 14.01446915, -65.35493469, 46.63821793, -1.01206315, 0.01740502, 7.26356983, 0.99795276, 0.00882368, 0.00040787, -0.06334301, 0.00400574, 0.96744025, -0.69504201, 87.60500336, 1210.34936523, 40.11000061, 0.00000000
1, 0.0999, 10, -0.00676501, -0.94913417, -0.30286175, 1.61534917, 17.86659431, 6.80379152, 14.19729233, -65.39891052, 47.28531265, -0.99412221, 0.00933024, 7.45442247, 0.99784726, 0.00866219, 0.00048270, -0.06500447, 0.00697897, 0.96659589, -0.69698572, 87.60500336, 1210.34936523, 40.11000061, 0.00000000
1, 0.1099, 11, -0.00634638, -0.94918662, -0.30104223, 1.09206343, 18.51746941, 6.62571573, 14.45324135, -66.71829224, 47.83723831, -0.98136371, 0.00494523, 7.65094471, 0.99773532, 0.00854770, 0.00052830, -0.06671540, 0.00645630, 0.96638680, -0.69880986, 87.60500336, 1210.34936523, 40.11000061, 0.00000000
1, 0.1199, 12, -0.00298085, -0.95467234, -0.31178299, 0.44292274, 19.39235497, 6.32968473, 13.86821175, -67.07012177, 47.76111221, -0.97502917, 0.00610095, 7.85488510, 0.99761552, 0.00849229, 0.00052967, -0.06849109, 0.00307119, 0.97172379, -0.68807161, 87.60500336, 1210.34936523, 40.11000061, 0.00000000
1, 0.1299, 13, -0.00093787, -0.96178985, -0.31682694, 0.10236397, 20.10068321, 5.87100506, 13.79508114, -68.16960144, 47.53272629, -0.97203702, 0.01382315, 8.06413937, 0.99748886, 0.00847000, 0.00047612, -0.07031328, 0.00112129, 0.97877479, -0.68302882, 87.60500336, 1210.34936523, 40.11000061, 0.00000000
1, 0.1399, 14, 0.00538648, -0.96418983, -0.31729811, 0.80858183, 19.64619637, 5.66592789, 13.79508114, -68.16960144, 47.53272629, -0.96922266, 0.02476276, 8.23499203, 0.99738312, 0.00845164, 0.00039177, -0.07180125, -0.00503725, 0.98108691, -0.68255901, 87.60500336, 1210.34936523, 40.11000061, 0.00000000
1, 0.1499, 15, 0.01126406, -0.96309686, -0.31538001, 1.10247481, 18.47776222, 5.90413809, 14.27041817, -68.52143860, 47.53272629, -0.95632255, 0.02701320, 8.42885113, 0.99726111, 0.00834015, 0.00037821, -0.07348867, -0.01080369, 0.97986722, -0.68447936, 87.60500336, 1210.34936523, 40.11000061, 0.00000000
1, 0.1599, 16, 0.01366792, -0.95769793, -0.31328431, 0.92980832, 17.77337646, 5.87227917, 14.19729233, -67.64184570, 47.41853714, -0.94521034, 0.02730566, 8.61594391, 0.99714065, 0.00824302, 0.00038199, -0.07511685, -0.01319537, 0.97427046, -0.68657827, 87.60500336, 1210.34936523, 40.11000061, 0.00000000
1, 0.1699, 17, 0.01766523, -0.95338154, -0.31459427, 0.89989412, 17.41603851, 5.67149734, 13.83164692, -66.85022736, 47.51369476, -0.93443114, 0.02833894, 8.79901123, 0.99702018, 0.00814930, 0.00037896, -0.07670987, -0.01718551, 0.96975452, -0.68527156, 87.60500336, 1210.34936523, 40.11000061, 0.00000000
1, 0.1799, 18, 0.01889145, -0.94668031, -0.31108677, 0.66034651, 16.95954132, 5.13528395, 14.08759975, -67.94970703, 48.12272263, -0.92609972, 0.03299593, 8.97607899, 0.99690092, 0.00807940, 0.00034535, -0.07825073, -0.01835110, 0.96290588, -0.68878144, 87.60500336, 1210.34936523, 40.11000061, 0.00000000
1, 0.1899, 19, 0.02405908, -0.94858593, -0.31110552, 1.13858914, 16.12787247, 4.79992533, 14.08759975, -67.94970703, 48.12272263, -0.91993767, 0.04789310, 9.10901737, 0.99680978, 0.00803572, 0.00022086, -0.07940824, -0.02337541, 0.96463776, -0.68876535, 87.60500336, 1210.34936523, 40.11000061, 0.00000000
1, 0.1999, 20, 0.03093579, -0.95249784, -0.31185848, 0.99970007, 13.11913776, 5.08866167, 14.08759975, -68.47746277, 48.10368729, -0.90853471, 0.04085555, 9.24946308, 0.99671257, 0.00793131, 0.00028390, -0.08062942, -0.03015849, 0.96842706, -0.68801445, 87.60500336, 1210.34936523, 40.11000061, 0.00000000
1, 0.2099, 21, 0.02150247, -0.94504064, -0.30818504, 1.54040158, 11.30989647, 4.75013924, 13.17348671, -68.30153656, 48.21787643, -0.89192504, 0.03131789, 9.37161446, 0.99662733, 0.00777974, 0.00036346, -0.08169124, -0.02090552, 0.96072876, -0.69169176, 87.60500336, 1210.34936523, 40.11000061, 0.00000000
1, 0.2199, 22, 0.02691690, -0.94964325, -0.30311286, 2.32025957, 11.29166794, 4.13212824, 13.21005249, -66.93818665, 48.19884872, -0.86754352, 0.02753783, 9.49157524, 0.99654281, 0.00756460, 0.00038688, -0.08273435, -0.02641747, 0.96494293, -0.69676995, 87.60500336, 1210.34936523, 40.11000061, 0.00000000
1, 0.2299, 23, 0.03555602, -0.95891333, -0.30465418, 2.25912237, 11.04355812, 3.52943707, 13.46600056, -67.94970703, 47.89433289, -0.84382772, 0.02865593, 9.60729313, 0.99646032, 0.00735879, 0.00036746, -0.08374079, -0.03506878, 0.97379333, -0.69523501, 87.60500336, 1210.34936523, 40.11000061, 0.00000000
1, 0.2399, 24, 0.03796533, -0.96738422, -0.30659622, 1.36799347, 9.57299232, 2.78053617, 13.46600056, -67.94970703, 47.89433289, -0.83274078, 0.05038564, 9.66876221, 0.99641573, 0.00727817, 0.00017431, -0.08427671, -0.03735591, 0.98194718, -0.69329751, 87.60500336, 1210.34936523, 40.11000061, 0.00000000
1, 0.2499, 25, 0.03643623, -0.97357064, -0.30819568, 0.31497356, 8.29127598, 1.94820964, 14.05103493, -69.48898315, 48.37014008, -0.82872570, 0.05784812, 9.75357437, 0.99635339, 0.00724866, 0.00011183, -0.08501463, -0.03547472, 0.98804301, -0.69169909, 87.60500336, 1210.34936523, 40.11000061, 0.00000000
1, 0.2599, 26, 0.02920982, -0.97525126, -0.30690211, -0.11765614, 7.45672846, 1.35190392, 13.79508114, -68.82929230, 48.76980972, -0.82913303, 0.06836256, 9.82862949, 0.99629736, 0.00725999, 0.00002547, -0.08566786, -0.02808960, 0.98971295, -0.69299269, 87.60500336, 1210.34936523, 40.11000061, 0.00000000
1, 0.2699, 27, 0.02380349, -0.97030497, -0.30264887, -0.23266913, 6.94803715, 0.91968191, 13.39287472, -68.21358490, 48.57948685, -0.83073032, 0.08139361, 9.89751434, 0.99624544, 0.00728367, -0.00008226, -0.08626757, -0.02247245, 0.98479712, -0.69724524, 87.60500336, 1210.34936523, 40.11000061, 0.00000000
1, 0.2799, 28, 0.02253425, -0.96562868, -0.29672170, -0.30581146, 5.75322962, 0.49048519, 13.21005249, -68.34552002, 48.31304169, -0.83318603, 0.09475115, 9.95371819, 0.99620259, 0.00731517, -0.00019295, -0.08675702, -0.02096784, 0.98015159, -0.70317161, 87.60500336, 1210.34936523, 40.11000061, 0.00000000
1, 0.2899, 29, 0.02119865, -0.95870209, -0.29444051, -0.37033367, 5.01567173, 0.44001982, 13.21005249, -68.34552002, 48.31304169, -0.82424945, 0.12777212, 9.96184063, 0.99619657, 0.00726251, -0.00048627, -0.08682965, -0.01932196, 0.97323531, -0.70545220, 87.60500336, 1210.34936523, 40.11000061, 0.00000000
1, 0.2999, 30, 0.02505291, -0.95443356, -0.30067533, 0.27770823, 4.50357389, 0.58547544, 13.75851536, -67.90572357, 48.75077820, -0.82096028, 0.13631447, 10.00641727, 0.99616277, 0.00724061, -0.00056021, -0.08721769, -0.02272827, 0.96879166, -0.69921887, 87.60500336, 1210.34936523, 40.11000061, 0.00000000
1, 0.3099, 31, 0.02483921, -0.95279926, -0.30405048, 0.33713955, 4.18124628, 0.38515565, 13.10035515, -69.62091827, 48.61755371, -0.81710762, 0.14574689, 10.04730034, 0.99613178, 0.00721452, -0.00064256, -0.08757365, -0.02235920, 0.96708167, -0.69584447, 87.60500336, 1210.34936523, 40.11000061, 0.00000000
1, 0.3199, 32, 0.03190475, -0.96025884, -0.30587292, -0.10197316, 3.54708791, 0.12707059, 13.79508114, -68.08164215, 48.35110474, -0.81772947, 0.15564524, 10.08139801, 0.99610549, 0.00722771, -0.00072598, -0.08787065, -0.02924861, 0.97451848, -0.69402194, 87.60500336, 1210.34936523, 40.11000061, 0.00000000
1, 0.3299, 33, 0.03274532, -0.96225530, -0.31003177, -1.08315468, 1.06978309, 0.04283397, 13.46600056, -68.21358490, 48.38916779, -0.82843578, 0.15859355, 10.09179115, 0.99609673, 0.00732310, -0.00074274, -0.08796126, -0.02999093, 0.97663736, -0.68986100, 87.60500336, 1210.34936523, 40.11000061, 0.00000000
1, 0.3399, 34, 0.02141528, -0.95588869, -0.31057140, -0.45005766, -0.77019620, -0.47240084, 13.39287472, -68.21358490, 48.21787643, -0.83584154, 0.19241369, 10.04109859, 0.99613446, 0.00741297, -0.00103432, -0.08752275, -0.01848961, 0.97043526, -0.68931854, 87.60500336, 1210.34936523, 40.11000061, 0.00000000
1, 0.3499, 35, 0.02538596, -0.95155972, -0.30877396, 0.61667776, -1.13295281, -0.87001419, 13.39287472, -67.24604034, 48.21787643, -0.82983780, 0.19712220, 10.02755547, 0.99614501, 0.00736425, -0.00108070, -0.08740525, -0.02197425, 0.96608692, -0.69111472, 87.60500336, 1210.34936523, 40.11000061, 0.00000000
1, 0.3599, 36, 0.02801401, -0.95327765, -0.30165008, 0.57448983, -2.00386786, -1.15186977, 13.10035515, -66.63032532, 48.48432922, -0.82438606, 0.20178810, 10.00487232, 0.99616259, 0.00732019, -0.00112687, -0.08720829, -0.02452491, 0.96769941, -0.69823992, 87.60500336, 1210.34936523, 40.11000061, 0.00000000
1, 0.3699, 37, 0.03495771, -0.96085125, -0.29621327, 0.40619344, -2.94581151, -1.34694099, 13.17348671, -67.37797546, 48.69367981, -0.82073104, 0.20535740, 9.97263336, 0.99618727, 0.00729081, -0.00116273, -0.08692823, -0.03139253, 0.97519982, -0.70367748, 87.60500336, 1210.34936523, 40.11000061, 0.00000000
1, 0.3799, 38, 0.03494208, -0.96663892, -0.29456267, 1.33344162, -4.06785440, -1.54915094, 14.23385715, -68.52143860, 48.78883743, -0.80796677, 0.20733979, 9.92902946, 0.99622101, 0.00718089, -0.00119238, -0.08654913, -0.03134016, 0.98084438, -0.70532990, 87.60500336, 1210.34936523, 40.11000061, 0.00000000
1, 0.3899, 39, 0.02771657, -0.96973997, -0.29801759, 2.33206129, -4.77365589, -1.98892438, 13.31974411, -68.69735718, 48.59851837, -0.78223461, 0.22405760, 9.83825588, 0.99629045, 0.00696873, -0.00136268, -0.08576065, -0.02399904, 0.98358059, -0.70187974, 87.60500336, 1210.34936523, 40.11000061, 0.00000000
1, 0.3999, 40, 0.02164275, -0.97047901, -0.29935074, 1.42488003, -4.85885715, -2.46255445, 13.31974411, -68.69735718, 48.59851837, -0.76871186, 0.23227926, 9.78427887, 0.99633145, 0.00685663, -0.00144751, -0.08529166, -0.01764804, 0.98396134, -0.70055038, 87.60500336, 1210.34936523, 40.11000061, 0.00000000
1, 0.4099, 41, 0.01970633, -0.96456319, -0.29732952, 0.21256596, -4.86011410, -2.96864176, 13.06379032, -67.33399963, 48.54142380, -0.76731580, 0.24530758, 9.72881794, 0.99637234, 0.00685343, -0.00156514, -0.08481016, -0.01551513, 0.97795355, -0.70257205, 87.60500336, 1210.34936523, 40.11000061, 0.00000000
1, 0.4199, 42, 0.01534184, -0.95732939, -0.29609460, 0.09441129, -5.07778120, -3.35957932, 13.17348671, -67.59787750, 48.12272263, -0.76717919, 0.26137704, 9.67008114, 0.99641532, 0.00686326, -0.00170849, -0.08430033, -0.01088525, 0.97072661, -0.70380574, 87.60500336, 1210.34936523, 40.11000061, 0.00000000
1, 0.4299, 43, 0.01203518, -0.95651793, -0.29452494, 0.31053290, -5.42172766, -3.20926714, 13.79508114, -67.24604034, 48.44626236, -0.76492196, 0.27494439, 9.60852623, 0.99646032, 0.00685263, -0.00183180, -0.08376583, -0.00732493, 0.96988189, -0.70537466, 87.60500336, 1210.34936523, 40.11000061, 0.00000000
1, 0.4399, 44, 0.01178947, -0.95806581, -0.29915398, 0.24206072, -6.12927866, -2.99541497, 14.41668034, -67.77378845, 48.40819931, -0.76334220, 0.28625596, 9.50227070, 0.99653727, 0.00684536, -0.00193767, -0.08284241, -0.00687007, 0.97140300, -0.70074499, 87.60500336, 1210.34936523, 40.11000061, 0.00000000
1, 0.4499, 45, 0.01721735, -0.95648652, -0.30348328, 0.65906578, -7.24756432, -2.61590052, 14.41668034, -67.77378845, 48.40819931, -0.75785184, 0.28849393, 9.42519474, 0.99659300, 0.00679791, -0.00196567, -0.08217214, -0.01218956, 0.96974844, -0.69641620, 87.60500336, 1210.34936523, 40.11000061, 0.00000000
1, 0.4599, 46, 0.02298189, -0.95377445, -0.30583155, 0.77185947, -8.43685341, -2.23694777, 14.19729233, -68.82929230, 47.60885620, -0.75136763, 0.28342614, 9.33799362, 0.99665582, 0.00673642, -0.00193137, -0.08141334, -0.01799214, 0.96693057, -0.69406945, 87.60500336, 1210.34936523, 40.11000061, 0.00000000
1, 0.4699, 47, 0.02803295, -0.95001405, -0.31356460, -0.11274097, -9.67802715, -2.31307006, 13.97790337, -67.86174774, 48.35110474, -0.75389647, 0.27521345, 9.23883915, 0.99672598, 0.00675097, -0.00186399, -0.08055051, -0.02317561, 0.96314281, -0.68633741, 87.60500336, 1210.34936523, 40.11000061, 0.00000000
1, 0.4799, 48, 0.03152057, -0.95190853, -0.31984764, -0.67131287, -11.08619022, -2.51674891, 13.90477753, -67.72981262, 48.29400635, -0.76218021, 0.26453501, 9.12572193, 0.99680471, 0.00681377, -0.00177201, -0.07956611, -0.02682781, 0.96514583, -0.68005371, 87.60500336, 1210.34936523, 40.11000061, 0.00000000
1, 0.4899, 49, 0.02821192, -0.96412873, -0.31935602, -0.55329663, -11.85320854, -2.77933216, 13.39287472, -66.71829224, 48.17981720, -0.77763259, 0.26141423, 8.96814823, 0.99691236, 0.00694363, -0.00174368, -0.07819539, -0.02368269, 0.97756141, -0.68054354, 87.60500336, 1210.34936523, 40.11000061, 0.00000000
1, 0.4999, 50, 0.01590203, -0.97608936, -0.31262255, 1.03603590, -12.22617245, -3.35454202, 13.39287472, -66.71829224, 48.17981720, -0.76899421, 0.25509465, 8.84143162, 0.99699891, 0.00686229, -0.00170219, -0.07709246, -0.01141037, 0.98958373, -0.68727630, 87.60500336, 1210.34936523, 40.11000061, 0.00000000
1, 0.5099, 51, 0.00643334, -0.98370886, -0.30594999, 1.86878717, -13.05990028, -3.39219666, 13.94133854, -67.20205688, 47.98949814, -0.75213343, 0.24656895, 8.70659924, 0.99709016, 0.00670793, -0.00164725, -0.07591857, -0.00207011, 0.99695027, -0.69395280, 87.60500336, 1210.34936523, 40.11000061, 0.00000000
1, 0.5199, 52, -0.00097486, -0.98598129, -0.30401647, 1.50651979, -14.12088299, -3.74738169, 14.30698395, -68.38949585, 48.27497482, -0.73903811, 0.23814559, 8.56061459, 0.99718702, 0.00658638, -0.00159102, -0.07464761, 0.00518890, 0.99896121, -0.69589037, 87.60500336, 1210.34936523, 40.11000061, 0.00000000
1, 0.5299, 53, -0.00274190, -0.98290139, -0.30573675, 0.22529100, -15.21163654, -3.76639318, 14.23385715, -68.25756073, 47.91336823, -0.73885036, 0.22651991, 8.40432072, 0.99728811, 0.00657514, -0.00149895, -0.07328682, 0.00677058, 0.99577963, -0.69417220, 87.60500336, 1210.34936523, 40.11000061, 0.00000000
1, 0.5399, 54, -0.00540022, -0.97350019, -0.30899060, -1.09680116, -15.75378227, -3.77374554, 14.48980618, -67.64184570, 47.36144257, -0.75806808, 0.21068308, 8.20907688, 0.99741083, 0.00672996, -0.00136030, -0.07158687, 0.00920389, 0.98655283, -0.69091696, 87.60500336, 1210.34936523, 40.11000061, 0.00000000
1, 0.5499, 55, -0.00337446, -0.95567119, -0.31459436, -1.32280993, -16.56207848, -3.77246928, 14.48980618, -67.64184570, 47.36144257, -0.77345604, 0.19482981, 8.04008865, 0.99751461, 0.00685220, -0.00122280, -0.07011519, 0.00688319, 0.96906823, -0.68530971, 87.60500336, 1210.34936523, 40.11000061, 0.00000000
1, 0.5599, 56, 0.00497123, -0.94498497, -0.30771908, -1.35222888, -17.40427971, -3.70219374, 14.12416077, -66.49839020, 46.88563919, -0.78917354, 0.17562930, 7.86332369, 0.99762100, 0.00697565, -0.00105681, -0.06857540, -0.00177242, 0.95864630, -0.69218254, 87.60500336, 1210.34936523, 40.11000061, 0.00000000
1, 0.5699, 57, 0.00799211, -0.94325256, -0.29859695, -1.82337463, -17.13635635, -3.51933646, 13.53913212, -66.71829224, 47.07595444, -0.80950612, 0.15547630, 7.68972397, 0.99772280, 0.00713928, -0.00088001, -0.06706295, -0.00514759, 0.95725119, -0.70130098, 87.60500336, 1210.34936523, 40.11000061, 0.00000000
1, 0.5799, 58, 0.00979589, -0.94698018, -0.29635790, -0.75271344, -17.06474876, -3.18711925, 13.75851536, -68.47746277, 47.39950180, -0.81903976, 0.13233757, 7.51775455, 0.99782211, 0.00720773, -0.00068378, -0.06556423, -0.00733120, 0.96123302, -0.70353746, 87.60500336, 1210.34936523, 40.11000061, 0.00000000
1, 0.5899, 59, 0.01021850, -0.95086396, -0.29518116, 0.46629852, -17.61037445, -2.81559777, 14.30698395, -67.50991058, 47.49466705, -0.81920731, 0.10664988, 7.30829144, 0.99794060, 0.00719365, -0.00047316, -0.06373861, -0.00819797, 0.96515059, -0.70471472, 87.60500336, 1210.34936523, 40.11000061, 0.00000000
1, 0.5999, 60, 0.01279402, -0.95140868, -0.29497233, 0.86753851, -18.77825165, -2.56012535, 14.30698395, -67.50991058, 47.49466705, -0.81254905, 0.07219744, 7.12186146, 0.99804378, 0.00711621, -0.00018840, -0.06211283, -0.01130562, 0.96562690, -0.70492554, 87.60500336, 1210.34936523, 40.11000061, 0.00000000
1, 0.6099, 61, 0.01005411, -0.95686722, -0.29747209, 0.24335514, -19.21257210, -2.53219008, 13.94133854, -66.67430878, 47.34240723, -0.81203842, 0.03612534, 6.93144464, 0.99814594, 0.00709241, 0.00011371, -0.06045208, -0.00918872, 0.97104305, -0.70242703, 87.60500336, 1210.34936523, 40.11000061, 0.00000000
1, 0.6199, 62, 0.00633727, -0.96279114, -0.30432421, 0.26099634, -18.58862686, -2.90584898, 14.78232574, -66.14656067, 47.03789520, -0.81120241, 0.00556013, 6.74578381, 0.99824280, 0.00706961, 0.00036805, -0.05883293, -0.00605327, 0.97696036, -0.69557536, 87.60500336, 1210.34936523, 40.11000061, 0.00000000
1, 0.6299, 63, 0.00271012, -0.96349001, -0.30593804, 0.50853181, -17.39451981, -3.40885139, 13.86821175, -66.58635712, 46.61919403, -0.80771780, -0.01648541, 6.56987047, 0.99833220, 0.00702878, 0.00054752, -0.05729908, -0.00285754, 0.97761083, -0.69396234, 87.60500336, 1210.34936523, 40.11000061, 0.00000000
1, 0.6399, 64, -0.00443732, -0.96598494, -0.30514169, 0.13741145, -17.56441689, -3.69254041, 14.05103493, -66.71829224, 46.63821793, -0.81195003, -0.03796498, 6.35789347, 0.99843627, 0.00705626, 0.00072371, -0.05545087, 0.00392672, 0.98008657, -0.69475877, 87.60500336, 1210.34936523, 40.11000061, 0.00000000
1, 0.6499, 65, -0.00794314, -0.97117954, -0.30177116, -0.84710097, -18.00354958, -3.54055548, 13.86821175, -68.08164215, 46.33370972, -0.82193905, -0.06068552, 6.17591047, 0.99852246, 0.00713377, 0.00091518, -0.05386370, 0.00703597, 0.98545039, -0.69812661, 87.60500336, 1210.34936523, 40.11000061, 0.00000000
1, 0.6599, 66, -0.00991380, -0.97118562, -0.29930046, -1.33285952, -18.23463631, -3.28025293, 13.86821175, -68.08164215, 46.33370972, -0.83670884, -0.08664559, 5.99259520, 0.99860632, 0.00725209, 0.00113674, -0.05226449, 0.00857842, 0.98568887, -0.70059347, 87.60500336, 1210.34936523, 40.11000061, 0.00000000
1, 0.6699, 67, -0.00828146, -0.96623856, -0.30026254, -1.44366658, -18.44733047, -2.91524100, 14.59950256, -67.33399963, 46.14338684, -0.85251945, -0.11678280, 5.80841923, 0.99868786, 0.00737837, 0.00139472, -0.05065730, 0.00644652, 0.98101473, -0.69962668, 87.60500336, 1210.34936523, 40.11000061, 0.00000000
1, 0.6799, 68, -0.00377692, -0.96122795, -0.30063894, -1.64499402, -18.83512115, -2.37784982, 14.38011456, -66.41043091, 45.74371719, -0.87025279, -0.15328868, 5.62227917, 0.99876744, 0.00751956, 0.00170850, -0.04903233, 0.00134448, 0.97629040, -0.69924462, 87.60500336, 1210.34936523, 40.11000061, 0.00000000
1, 0.6899, 69, 0.00234173, -0.95306224, -0.29651368, -3.00734091, -18.94930458, -2.34092569, 14.16072655, -65.83870697, 45.59146118, -0.90457106, -0.18800315, 5.40205860, 0.99885726, 0.00780770, 0.00201075, -0.04710992, -0.00541103, 0.96858549, -0.70336109, 87.60500336, 1210.34936523, 40.11000061, 0.00000000
1, 0.6999, 70, 0.01130699, -0.95294535, -0.29558417, -3.73508310, -19.93450165, -2.25394130, 13.83164692, -66.71829224, 45.70565414, -0.94301373, -0.22935095, 5.20610428, 0.99893308, 0.00812985, 0.00237307, -0.04539810, -0.01503103, 0.96915573, -0.70427746, 87.60500336, 1210.34936523, 40.11000061, 0.00000000
1, 0.7099, 71, 0.02429957, -0.95154095, -0.30115512, -2.97555733, -21.16931915, -1.93065977, 13.83164692, -66.71829224, 45.70565414, -0.97375971, -0.27778080, 4.99940157, 0.99901038, 0.00838372, 0.00279231, -0.04359187, -0.02882681, 0.96834528, -0.69869351, 87.60500336, 1210.34936523, 40.11000061, 0.00000000
1, 0.7199, 72, 0.03239235, -0.94787031, -0.30611721, -2.62592793, -21.55485535, -2.32655764, 14.30698395, -66.80625153, 45.55339813, -1.00085413, -0.32377338, 4.78778124, 0.99908626, 0.00860832, 0.00318769, -0.04174269, -0.03774647, 0.96515703, -0.69371897, 87.60500336, 1210.34936523, 40.11000061, 0.00000000
1, 0.7299, 73, 0.03891683, -0.94866621, -0.30762085, -2.73442554, -22.15987206, -3.16512632, 14.34354877, -67.59787750, 45.78178406, -1.02890098, -0.36382219, 4.56780577, 0.99916148, 0.00884503, 0.00353010, -0.03982076, -0.04501841, 0.96643013, -0.69220269, 87.60500336, 1210.34936523, 40.11000061, 0.00000000
1, 0.7399, 74, 0.03753014, -0.94841999, -0.30514199, -2.69160843, -22.68512344, -4.61772108, 14.27041817, -65.13504028, 45.21082306, -1.06187356, -0.38233450, 4.30613756, 0.99924672, 0.00913452, 0.00368212, -0.03753657, -0.04416798, 0.96670729, -0.69466871, 87.60500336, 1210.34936523, 40.11000061, 0.00000000
1, 0.7499, 75, 0.03888997, -0.95205349, -0.30546087, -2.70594239, -22.57328033, -6.23253012, 14.08759975, -65.66278839, 45.07759476, -1.08949661, -0.39484471, 4.07254457, 0.99931860, 0.00937902, 0.00378115, -0.03549761, -0.04571469, 0.97088099, -0.69433856, 87.60500336, 1210.34936523, 40.11000061, 0.00000000
1, 0.7599, 76, 0.02996517, -0.94638890, -0.30367160, -2.08261657, -23.64091110, -7.82135201, 14.08759975, -65.66278839, 45.07759476, -1.11087441, -0.39578819, 3.82373762, 0.99939156, 0.00957337, 0.00377522, -0.03332697, -0.03688088, 0.96565408, -0.69611883, 87.60500336, 1210.34936523, 40.11000061, 0.00000000
1, 0.7699, 77, 0.01777622, -0.94376075, -0.30181673, -0.62880409, -23.97095299, -8.99290752, 14.48980618, -65.53085327, 44.69695663, -1.11776042, -0.38673699, 3.56793618, 0.99946320, 0.00964430, 0.00367677, -0.03109652, -0.02459949, 0.96324944, -0.69797003, 87.60500336, 1210.34936523, 40.11000061, 0.00000000
1, 0.7799, 78, 0.00675895, -0.94541109, -0.30607188, -0.16388443, -24.01713371, -10.15546989, 14.48980618, -65.79473114, 45.36307526, -1.12006509, -0.36682007, 3.30795455, 0.99953139, 0.00967774, 0.00348173, -0.02883053, -0.01330156, 0.96493590, -0.69371611, 87.60500336, 1210.34936523, 40.11000061, 0.00000000
1, 0.7899, 79, 0.00661930, -0.94599593, -0.31767729, -0.61917609, -23.95586395, -10.97896957, 15.25766277, -65.66278839, 45.05856705, -1.13560760, -0.33616567, 3.01561594, 0.99960119, 0.00982922, 0.00319319, -0.02628270, -0.01271524, 0.96565372, -0.68211091, 87.60500336, 1210.34936523, 40.11000061, 0.00000000
1, 0.7999, 80, 0.00597043, -0.94157344, -0.32236025, -0.43436295, -23.42784119, -11.70672131, 14.45324135, -65.22299194, 44.24018860, -1.14088738, -0.29976603, 2.75630760, 0.99965847, 0.00989013, 0.00285451, -0.02402369, -0.01145088, 0.96145838, -0.67742699, 87.60500336, 1210.34936523, 40.11000061, 0.00000000
1, 0.8099, 81, 0.00247633, -0.93926156, -0.32336643, 2.13900805, -23.06749344, -12.58593559, 14.45324135, -65.22299194, 44.24018860, -1.12060618, -0.25386617, 2.49739075, 0.99971277, 0.00972835, 0.00242787, -0.02176936, -0.00721201, 0.95900804, -0.67642730, 87.60500336, 1210.34936523, 40.11000061, 0.00000000
1, 0.8199, 82, 0.00948546, -0.95057702, -0.32232484, 4.45404530, -23.54992485, -12.40980053, 13.94133854, -64.21147156, 44.22116089, -1.07740927, -0.21102095, 2.23426461, 0.99976444, 0.00936432, 0.00202438, -0.01947819, -0.01343537, 0.96967691, -0.67748487, 87.60500336, 1210.34936523, 40.11000061, 0.00000000
1, 0.8299, 83, 0.01505877, -0.95970374, -0.32026792, 4.54546833, -25.14217758, -11.52948380, 14.63606358, -65.61880493, 44.16406250, -1.03355157, -0.18135573, 1.95885217, 0.99981225, 0.00899093, 0.00173650, -0.01707838, -0.01839175, 0.97801638, -0.67955881, 87.60500336, 1210.34936523, 40.11000061, 0.00000000
1, 0.8399, 84, 0.01460988, -0.95382452, -0.31841534, 4.43515491, -26.61992073, -10.40004444, 15.22109699, -65.66278839, 44.03083801, -0.99901742, -0.16330218, 1.64471769, 0.99985820, 0.00869660, 0.00155000, -0.01433939, -0.01758376, 0.97144908, -0.68142492, 87.60500336, 1210.34936523, 40.11000061, 0.00000000
1, 0.8499, 85, 0.01097633, -0.95270526, -0.31537017, 5.21810770, -27.05429840, -9.69086266, 14.19729233, -64.12351990, 44.06889725, -0.94867861, -0.15673941, 1.35694802, 0.99989492, 0.00826190, 0.00146570, -0.01182959, -0.01374832, 0.96960235, -0.68448323, 87.60500336, 1210.34936523, 40.11000061, 0.00000000
1, 0.8599, 86, 0.00145482, -0.94797617, -0.31082502, 4.88565636, -26.23607826, -9.51444054, 14.19729233, -64.12351990, 44.06889725, -0.90163994, -0.14902207, 1.07753623, 0.99992406, 0.00785563, 0.00137435, -0.00939261, -0.00411779, 0.96400189, -0.68904305, 87.60500336, 1210.34936523, 40.11000061, 0.00000000
1, 0.8699, 87, -0.01443265, -0.94398934, -0.30964690, 4.18243122, -24.73781013, -10.18392086, 14.38011456, -64.21147156, 43.21246338, -0.86161119, -0.13003528, 0.81031901, 0.99994618, 0.00751069, 0.00118788, -0.00706257, 0.01202340, 0.95928419, -0.69023317, 87.60500336, 1210.34936523, 40.11000061, 0.00000000
1, 0.8799, 88, -0.02347201, -0.94542181, -0.31034052, 4.31751108, -23.60230827, -10.30108738, 15.14796638, -64.69524384, 43.74535370, -0.82025713, -0.10618874, 0.55352014, 0.99996233, 0.00715347, 0.00096121, -0.00482360, 0.02146339, 0.96001858, -0.68955088, 87.60500336, 1210.34936523, 40.11000061, 0.00000000
1, 0.8899, 89, -0.02432725, -0.95088929, -0.31245053, 5.13961411, -23.85914803, -9.93985844, 14.92858315, -64.56330872, 43.61213303, -0.77873236, -0.09008946, 0.26718402, 0.99997389, 0.00679381, 0.00080200, -0.00232622, 0.02268359, 0.96470416, -0.68745267, 87.60500336, 1210.34936523, 40.11000061, 0.00000000
1, 0.8999, 90, -0.02568194, -0.95865870, -0.30615196, 5.48131418, -25.31163216, -9.09252548, 15.51361179, -63.90362167, 43.13633347, -0.72599506, -0.08265474, -0.00215553, 0.99997967, 0.00633547, 0.00072116, 0.00002338, 0.02420763, 0.97167587, -0.69376224, 87.60500336, 1210.34936523, 40.11000061, 0.00000000
1, 0.9099, 91, -0.02318764, -0.95091379, -0.31176135, 5.27576637, -26.01648521, -8.05201721, 15.51361179, -63.90362167, 43.13633347, -0.67535043, -0.08706550, -0.27493823, 0.99997950, 0.00589531, 0.00074563, 0.00240372, 0.02171466, 0.96304870, -0.68816388, 87.60500336, 1210.34936523, 40.11000061, 0.00000000
1, 0.9199, 92, -0.01567006, -0.95666313, -0.31532037, 7.38681841, -25.54124451, -6.71253300, 15.00170898, -64.69524384, 43.04117203, -0.60346878, -0.10245353, -0.53924829, 0.99997467, 0.00527038, 0.00086927, 0.00471045, 0.01399776, 0.96769387, -0.68461734, 87.60500336, 1210.34936523, 40.11000061, 0.00000000
1, 0.9299, 93, -0.01480331, -0.97536814, -0.31341431, 5.42596102, -25.07859421, -6.55618000, 14.67262936, -65.04708099, 42.94601059, -0.55110222, -0.11757795, -0.79850459, 0.99996358, 0.00481628, 0.00099251, 0.00697306, 0.01283945, 0.98526096, -0.68653482, 87.60500336, 1210.34936523, 40.11000061, 0.00000000
1, 0.9399, 94, -0.01505323, -0.97829521, -0.30771509, 1.96353698, -24.11944199, -7.05276966, 15.29422855, -64.12351990, 42.75569153, -0.54047543, -0.12747940, -1.07946515, 0.99994391, 0.00472679, 0.00106798, 0.00942510, 0.01290280, 0.98772591, -0.69223821, 87.60500336, 1210.34936523, 40.11000061, 0.00000000
1, 0.9499, 95, -0.01291322, -0.97397131, -0.30535305, 1.80805755, -23.04252243, -6.87144756, 14.19729233, -62.40832901, 42.08957291, -0.52405328, -0.13315114, -1.31999958, 0.99992251, 0.00458629, 0.00110919, 0.01152410, 0.01062534, 0.98324382, -0.69460130, 87.60500336, 1210.34936523, 40.11000061, 0.00000000
1, 0.9599, 96, -0.01242643, -0.97375017, -0.29750022, 3.14603257, -23.10946274, -6.33202171, 15.14796638, -64.34340668, 42.37504959, -0.49420550, -0.14407086, -1.55964637, 0.99989730, 0.00432945, 0.00119843, 0.01361534, 0.00998793, 0.98258454, -0.70245779, 87.60500336, 1210.34936523, 40.11000061, 0.00000000
1, 0.9699, 97, -0.01614737, -0.97371566, -0.28944850, 3.19391608, -22.89064026, -6.04631472, 15.14796638, -64.34340668, 42.37504959, -0.46381861, -0.15689386, -1.79634011, 0.99986798, 0.00406853, 0.00130553, 0.01568078, 0.01349307, 0.98199403, -0.71051371, 87.60500336, 1210.34936523, 40.11000061, 0.00000000
1, 0.9799, 98, -0.01991882, -0.97474241, -0.29168162, 1.87310565, -21.63188934, -5.99823189, 15.25766277, -63.06801224, 41.74699402, -0.44651887, -0.16621412, -2.02078605, 0.99983585, 0.00392157, 0.00138154, 0.01763927, 0.01706915, 0.98263443, -0.70828319, 87.60500336, 1210.34936523, 40.11000061, 0.00000000
1, 0.9899, 99, -0.02746576, -0.97551185, -0.29441565, 0.51525819, -19.73332596, -6.27057171, 14.45324135, -62.76015854, 41.68989944, -0.44839248, -0.17466509, -2.25876856, 0.99979687, 0.00394223, 0.00144681, 0.01971598, 0.02450717, 0.98327386, -0.70554984, 87.60500336, 1210.34936523, 40.11000061, 0.00000000
1, 0.9999, 100, -0.03163844, -0.97223294, -0.29748377, -0.65101087, -17.61452675, -6.27519226, 14.92858315, -63.19995117, 41.51861191, -0.45605990, -0.16900732, -2.44560266, 0.99976313, 0.00401042, 0.00138959, 0.02134596, 0.02865035, 0.98013365, -0.70248049, 87.60500336, 1210.34936523, 40.11000061, 0.00000000
1, 1.0099, 101, -0.03127407, -0.96730816, -0.30215207, -0.88875520, -17.18839836, -6.21277094, 15.62330818, -63.33188629, 41.78505707, -0.46609297, -0.16266574, -2.62817049, 0.99972761, 0.00409890, 0.00132586, 0.02293866, 0.02840115, 0.97537583, -0.69781125, 87.60500336, 1210.34936523, 40.11000061, 0.00000000
1, 1.0199, 102, -0.02558464, -0.96058995, -0.29945722, -0.62122655, -17.67344284, -5.80190802, 15.62330818, -63.33188629, 41.78505707, -0.47348109, -0.16175531, -2.81411624, 0.99968880, 0.00416530, 0.00130968, 0.02456092, 0.02276471, 0.96881694, -0.70050496, 87.60500336, 1210.34936523, 40.11000061, 0.00000000
1, 1.0299, 103, -0.02682070, -0.96094054, -0.29175034, 0.35632703, -18.30010986, -4.78095388, 15.36735439, -63.28790665, 41.51861191, -0.47109655, -0.17248946, -3.00298047, 0.99964696, 0.00414911, 0.00139700, 0.02620888, 0.02389319, 0.96917856, -0.70821142, 87.60500336, 1210.34936523, 40.11000061, 0.00000000
1, 1.0399, 104, -0.02730517, -0.97196376, -0.28712711, -0.28461489, -17.54061127, -4.30598927, 15.07484055, -62.45230865, 41.74699402, -0.47817343, -0.19322437, -3.21537280, 0.99959600, 0.00421850, 0.00156845, 0.02806248, 0.02411629, 0.98022437, -0.71283364, 87.60500336, 1210.34936523, 40.11000061, 0.00000000
1, 1.0499, 105, -0.02318146, -0.97063196, -0.29048780, -0.78612798, -15.69248199, -4.23044300, 15.51361179, -61.96853638, 41.76602936, -0.48697188, -0.20121764, -3.37762856, 0.99955493, 0.00429951, 0.00162993, 0.02947824, 0.01971803, 0.97909254, -0.70947045, 87.60500336, 1210.34936523, 40.11000061, 0.00000000
1, 1.0599, 106, -0.02452423, -0.96753120, -0.29118791, 0.39885262, -14.22879696, -3.97477889, 14.74575996, -61.79261780, 41.27119446, -0.48381630, -0.20715047, -3.52527428, 0.99951607, 0.00427568, 0.00167699, 0.03076626, 0.02094641, 0.97600669, -0.70876980, 87.60500336, 1210.34936523, 40.11000061, 0.00000000
1, 1.0699, 107, -0.02295948, -0.96055073, -0.29161310, 0.63757646, -13.30516148, -3.67483830, 14.74575996, -61.79261780, 41.27119446, -0.47820342, -0.21308288, -3.66323185, 0.99947846, 0.00423039, 0.00172515, 0.03196970, 0.01928200, 0.96892887, -0.70834506, 87.60500336, 1210.34936523, 40.11000061, 0.00000000
1, 1.0799, 108, -0.01883272, -0.95392585, -0.29422814, 0.23053156, -12.87231541, -3.04925227, 14.56293774, -62.40832901, 41.08087540, -0.47661364, -0.22363158, -3.79511142, 0.99944091, 0.00422156, 0.00181274, 0.03312029, 0.01500238, 0.96224749, -0.70572996, 87.60500336, 1210.34936523, 40.11000061, 0.00000000
1, 1.0899, 109, -0.01767709, -0.94828737, -0.29500586, 0.00638598, -12.34713745, -2.73869371, 14.85545158, -64.43137360, 40.96668243, -0.48492584, -0.24324158, -3.95392323, 0.99939334, 0.00430246, 0.00197541, 0.03450622, 0.01361401, 0.95665199, -0.70495087, 87.60500336, 1210.34936523, 40.11000061, 0.00000000
1, 1.0999, 110, -0.01455458, -0.94450665, -0.29799068, 0.33627149, -11.26498604, -2.64663935, 15.22109699, -63.46382904, 40.68120193, -0.48212907, -0.25269291, -4.06928253, 0.99935800, 0.00428298, 0.00205437, 0.03551259, 0.01019497, 0.95294225, -0.70196420, 87.60500336, 1210.34936523, 40.11000061, 0.00000000
1, 1.1099, 111, -0.01747462, -0.94819504, -0.30078742, 0.41202345, -8.95750332, -3.10812974, 14.27041817, -63.77168274, 40.94765091, -0.47845566, -0.25065336, -4.16411018, 0.99932843, 0.00425200, 0.00203421, 0.03633944, 0.01306915, 0.95656788, -0.69916779, 87.60500336, 1210.34936523, 40.11000061, 0.00000000
1, 1.1199, 112, -0.02312912, -0.95405298, -0.30190656, 0.23105943, -6.19058084, -3.45370603, 14.27041817, -63.77168274, 40.94765091, -0.47648773, -0.23681499, -4.23365450, 0.99930650, 0.00423161, 0.00191158, 0.03694538, 0.01889319, 0.96237361, -0.69804978, 87.60500336, 1210.34936523, 40.11000061, 0.00000000
1, 1.1299, 113, -0.02390119, -0.95827699, -0.30154526, 0.12246652, -4.46257830, -3.18852663, 15.00170898, -62.14445114, 41.00474548, -0.47553703, -0.22018664, -4.28592587, 0.99928993, 0.00421877, 0.00176495, 0.03740061, 0.01995355, 0.96658725, -0.69841236, 87.60500336, 1210.34936523, 40.11000061, 0.00000000
1, 1.1399, 114, -0.02356981, -0.96517217, -0.29497588, -0.06650058, -4.31935358, -2.58727503, 14.56293774, -62.49628448, 41.42345047, -0.47076386, -0.23305310, -4.37121248, 0.99926168, 0.00418274, 0.00187560, 0.03814471, 0.01975492, 0.97344762, -0.70498264, 87.60500336, 1210.34936523, 40.11000061, 0.00000000
1, 1.1499, 115, -0.02100448, -0.97388947, -0.29661030, -0.41731077, -4.61137152, -1.67826879, 14.85545158, -62.67220306, 40.92861938, -0.47517952, -0.23125476, -4.42020988, 0.99924517, 0.00422144, 0.00185664, 0.03857198, 0.01697256, 0.98215878, -0.70334738, 87.60500336, 1210.34936523, 40.11000061, 0.00000000
1, 1.1599, 116, -0.01215566, -0.97788674, -0.29983455, 0.68260145, -4.75534534, -0.73543257, 14.89201736, -62.01251602, 41.04280853, -0.46860310, -0.23886754, -4.46778345, 0.99922919, 0.00416746, 0.00192351, 0.03898698, 0.00804807, 0.98612809, -0.70012307, 87.60500336, 1210.34936523, 40.11000061, 0.00000000
1, 1.1699, 117, -0.00286867, -0.97538334, -0.30113050, 1.44626486, -4.87939405, -0.12513642, 14.89201736, -62.01251602, 41.04280853, -0.45438084, -0.25266156, -4.51473475, 0.99921346, 0.00404897, 0.00204697, 0.03939663, -0.00144550, 0.98341441, -0.69882792, 87.60500336, 1210.34936523, 40.11000061, 0.00000000
1, 1.1799, 118, -0.00069221, -0.97205287, -0.29757524, 0.77335656, -4.06355810, 0.03470100, 14.59950256, -62.18843079, 41.17603302, -0.44682848, -0.26546165, -4.55337572, 0.99920005, 0.00398824, 0.00215984, 0.03973385, -0.00386264, 0.97989237, -0.70238364, 87.60500336, 1210.34936523, 40.11000061, 0.00000000
1, 1.1899, 119, -0.00341227, -0.96651763, -0.29731914, -0.04255106, -2.57215357, -0.26543540, 15.44048595, -62.80414200, 41.19506836, -0.42823517, -0.29197928, -4.61804199, 0.99917752, 0.00383666, 0.00239535, 0.04029820, -0.00138400, 0.97423065, -0.70263958, 87.60500336, 1210.34936523, 40.11000061, 0.00000000
1, 1.1999, 120, -0.00622416, -0.95821017, -0.29504418, -0.23206623, -1.07725787, -0.47952345, 15.11140537, -63.28790665, 41.25216293, -0.43059665, -0.29071885, -4.62974501, 0.99917328, 0.00385705, 0.00238313, 0.04040025, 0.00113351, 0.96571052, -0.70491475, 87.60500336, 1210.34936523, 40.11000061, 0.00000000
1, 1.2099, 121, -0.00976816, -0.95174551, -0.29060590, -0.17545289, -0.84811878, -0.82644546, 14.59950256, -62.71617889, 41.09990692, -0.43239975, -0.28545099, -4.64033461, 0.99916965, 0.00387113, 0.00233621, 0.04049246, 0.00475404, 0.95928866, -0.70935309, 87.60500336, 1210.34936523, 40.11000061, 0.00000000
1, 1.2199, 122, -0.01296883, -0.95093930, -0.29057354, 0.32123265, -2.11247921, -0.92486012, 14.78232574, -62.67220306, 41.09990692, -0.42927414, -0.28312728, -4.66330767, 0.99916166, 0.00384352, 0.00231628, 0.04069263, 0.00801775, 0.95846134, -0.70938587, 87.60500336, 1210.34936523, 40.11000061, 0.00000000
1, 1.2299, 123, -0.01288551, -0.95076752, -0.28977141, 1.04427207, -2.49878645, -1.09339905, 14.78232574, -62.67220306, 41.09990692, -0.41895410, -0.28037730, -4.69053650, 0.99915242, 0.00375311, 0.00229507, 0.04092975, 0.00796772, 0.95815247, -0.71018922, 87.60500336, 1210.34936523, 40.11000061, 0.00000000
1, 1.2399, 124, -0.01939913, -0.95438635, -0.28863776, 0.80319875, -1.08835721, -1.41457486, 14.19729233, -61.04496765, 40.83345795, -0.37092364, -0.33926046, -4.74415493, 0.99913317, 0.00335666, 0.00282408, 0.04139790, 0.01430074, 0.96142924, -0.71132421, 87.60500336, 1210.34936523, 40.11000061, 0.00000000
1, 1.2499, 125, -0.02628716, -0.95782822, -0.28747615, 0.46780083, 0.64526558, -1.60561931, 14.27041817, -61.30884552, 40.56701279, -0.36623067, -0.32200322, -4.74296331, 0.99913412, 0.00330948, 0.00267534, 0.04138694, 0.02054724, 0.96425414, -0.71248668, 87.60500336, 1210.34936523, 40.11000061, 0.00000000
1, 1.2599, 126, -0.02917404, -0.95502210, -0.28437996, 1.48412979, 1.58268642, -1.78238237, 14.05103493, -60.78109741, 40.73830032, -0.35136607, -0.30019751, -4.73346996, 0.99913859, 0.00317180, 0.00249084, 0.04130325, 0.02378465, 0.96127057, -0.71558595, 87.60500336, 1210.34936523, 40.11000061, 0.00000000
1, 1.2699, 127, -0.03051172, -0.95376354, -0.28226253, 2.38031507, 1.36386931, -1.61394191, 14.70919418, -61.22089005, 41.04280853, -0.32752731, -0.28066587, -4.72563171, 0.99914241, 0.00295675, 0.00232934, 0.04123391, 0.02549388, 0.95964134, -0.71770763, 87.60500336, 1210.34936523, 40.11000061, 0.00000000
1, 1.2799, 128, -0.02237440, -0.95925575, -0.29002821, 2.37607312, 1.23749578, -1.22986305, 14.70919418, -61.22089005, 41.04280853, -0.30372360, -0.26518202, -4.71781063, 0.99914622, 0.00274348, 0.00220309, 0.04116489, 0.01765509, 0.96470767, -0.70994580, 87.60500336, 1210.34936523, 40.11000061, 0.00000000
1, 1.2899, 129, -0.00946477, -0.96720660, -0.29397488, 2.35114145, 1.33310807, -0.78831887, 14.70919418, -61.79261780, 41.23313141, -0.27139995, -0.26566672, -4.74667931, 0.99913645, 0.00246238, 0.00221830, 0.04141599, 0.00491342, 0.97221577, -0.70600224, 87.60500336, 1210.34936523, 40.11000061, 0.00000000
1, 1.2999, 130, -0.00586834, -0.97402859, -0.29299992, 2.45279813, 1.74303973, -0.62180686, 14.45324135, -62.71617889, 41.04280853, -0.24681377, -0.25444689, -4.73218393, 0.99914253, 0.00224368, 0.00212965, 0.04128893, 0.00135228, 0.97849911, -0.70697993, 87.60500336, 1210.34936523, 40.11000061, 0.00000000
1, 1.3099, 131, -0.00193950, -0.97252858, -0.29559234, 1.84140611, 1.92693675, -0.61606991, 15.07484055, -62.54026413, 40.66217041, -0.22831900, -0.24273229, -4.71586370, 0.99914896, 0.00207791, 0.00203447, 0.04114609, -0.00237359, 0.97662640, -0.70438993, 87.60500336, 1210.34936523, 40.11000061, 0.00000000
1, 1.3199, 132, 0.00124890, -0.96849310, -0.30315918, 1.05249214, 1.64343691, -0.44383308, 14.30698395, -61.39680099, 40.77635956, -0.21771686, -0.23352358, -4.70164871, 0.99915445, 0.00198192, 0.00195823, 0.04102181, -0.00537789, 0.97234869, -0.69682491, 87.60500336, 1210.34936523, 40.11000061, 0.00000000
1, 1.3299, 133, 0.00171138, -0.96673185, -0.30621830, 0.54861301, 1.32530308, -0.11499179, 14.30698395, -61.39680099, 40.77635956, -0.21216521, -0.22841011, -4.68941879, 0.99915892, 0.00193148, 0.00191583, 0.04091500, -0.00572508, 0.97046828, -0.69376659, 87.60500336, 1210.34936523, 40.11000061, 0.00000000
1, 1.3399, 134, -0.00265679, -0.95840162, -0.30294484, 0.83983982, 0.93390012, -0.17684658, 14.85545158, -61.00099564, 40.31959152, -0.21503662, -0.25114095, -4.72065592, 0.99914730, 0.00196521, 0.00211247, 0.04118777, -0.00140409, 0.96206850, -0.69704020, 87.60500336, 1210.34936523, 40.11000061, 0.00000000
1, 1.3499, 135, -0.00803387, -0.94808608, -0.30480650, 1.11697221, 0.92831373, -0.75789618, 15.22109699, -61.96853638, 40.66217041, -0.20383124, -0.24110682, -4.71420574, 0.99914998, 0.00186379, 0.00202911, 0.04113117, 0.00374761, 0.95170778, -0.69517779, 87.60500336, 1210.34936523, 40.11000061, 0.00000000
1, 1.3599, 136, -0.00784480, -0.95226097, -0.30474207, 0.31039760, 1.77192485, -1.31777644, 15.69643497, -63.24393463, 40.98571396, -0.20067494, -0.22317939, -4.70133781, 0.99915498, 0.00182962, 0.00187414, 0.04101865, 0.00381943, 0.95575708, -0.69524366, 87.60500336, 1210.34936523, 40.11000061, 0.00000000
1, 1.3699, 137, -0.00688750, -0.95788324, -0.30498731, -2.44688296, 1.42578912, -1.40450823, 15.00170898, -62.40832901, 40.50991440, -0.22507609, -0.20547771, -4.69177723, 0.99915826, 0.00203590, 0.00171123, 0.04093540, 0.00319216, 0.96161020, -0.69499892, 87.60500336, 1210.34936523, 40.11000061, 0.00000000
1, 1.3799, 138, -0.02372719, -0.94983882, -0.30489817, -1.98497999, -0.28463840, -2.58447123, 15.00170898, -62.40832901, 40.50991440, -0.24498977, -0.18171507, -4.70215130, 0.99915463, 0.00220119, 0.00149672, 0.04102573, 0.02038623, 0.95400763, -0.69508755, 87.60500336, 1210.34936523, 40.11000061, 0.00000000
1, 1.3899, 139, -0.03599638, -0.94702649, -0.30122751, -0.33292904, -0.80267215, -3.70785069, 15.03827477, -61.26486588, 40.18637085, -0.25155637, -0.21910954, -4.75826597, 0.99913359, 0.00227272, 0.00181931, 0.04151578, 0.03286845, 0.95136917, -0.69875801, 87.60500336, 1210.34936523, 40.11000061, 0.00000000
1, 1.3999, 140, -0.03478158, -0.95033020, -0.30329943, 0.48371488, 0.88945639, -2.90132904, 15.00170898, -61.30884552, 40.22443390, -0.24672228, -0.18876204, -4.75864458, 0.99913406, 0.00221958, 0.00155645, 0.04151845, 0.03129763, 0.95467114, -0.69668514, 87.60500336, 1210.34936523, 40.11000061, 0.00000000
1, 1.4099, 141, -0.01265723, -0.96357483, -0.31106022, 0.95542073, 0.64945120, -0.56990319, 15.00170898, -62.62821960, 40.56701279, -0.23714241, -0.18136159, -4.75427532, 0.99913597, 0.00213332, 0.00149548, 0.04148009, 0.00948074, 0.96777725, -0.68892586, 87.60500336, 1210.34936523, 40.11000061, 0.00000000
1, 1.4199, 142, -0.00067382, -0.97102362, -0.30892122, 1.25522757, -0.70641857, 0.64873385, 14.92858315, -61.39680099, 40.83345795, -0.22460997, -0.18968853, -4.75915098, 0.99913430, 0.00202713, 0.00157253, 0.04152258, -0.00257530, 0.97502565, -0.69106543, 87.60500336, 1210.34936523, 40.11000061, 0.00000000
1, 1.4299, 143, -0.00221970, -0.97349215, -0.30452514, 1.03615165, 1.06933165, 1.09103823, 14.92858315, -61.39680099, 40.83345795, -0.21417098, -0.19684409, -4.74575472, 0.99913931, 0.00193851, 0.00163893, 0.04140575, -0.00117271, 0.97729546, -0.69546181, 87.60500336, 1210.34936523, 40.11000061, 0.00000000
1, 1.4399, 144, -0.00620806, -0.97425693, -0.29629749, 0.55629200, 3.99320769, 1.50554359, 15.87925720, -62.62821960, 40.81442642, -0.20472719, -0.20898001, -4.74180222, 0.99914068, 0.00186049, 0.00174822, 0.04137133, 0.00270426, 0.97790611, -0.70368969, 87.60500336, 1210.34936523, 40.11000061, 0.00000000
1, 1.4499, 145, -0.01335634, -0.97029984, -0.29280883, -0.52479184, 6.28079987, 1.71515000, 15.65986919, -62.71617889, 40.77635956, -0.20961519, -0.20630102, -4.67670631, 0.99916387, 0.00190116, 0.00172418, 0.04080378, 0.00972815, 0.97391242, -0.70717812, 87.60500336, 1210.34936523, 40.11000061, 0.00000000
1, 1.4599, 146, -0.01900104, -0.96660012, -0.29096708, -1.18519926, 8.33865166, 1.47918165, 15.29422855, -61.74863815, 40.56701279, -0.22099049, -0.19513220, -4.59264708, 0.99919355, 0.00199518, 0.00162421, 0.04007082, 0.01550872, 0.97037369, -0.70901972, 87.60500336, 1210.34936523, 40.11000061, 0.00000000
1, 1.4699, 147, -0.02694035, -0.96619070, -0.29342002, -2.64682627, 10.27554798, 0.90913409, 15.29422855, -61.52874374, 40.45281982, -0.24685016, -0.17263384, -4.49173260, 0.99922830, 0.00221155, 0.00142094, 0.03919082, 0.02376628, 0.97029936, -0.70656645, 87.60500336, 1210.34936523, 40.11000061, 0.00000000
1, 1.4799, 148, -0.03202607, -0.96431398, -0.29933888, -4.56614447, 11.05726051, 0.45682719, 15.29422855, -61.52874374, 40.45281982, -0.29181343, -0.14338578, -4.38458586, 0.99926400, 0.00259255, 0.00115294, 0.03825641, 0.02932285, 0.96909690, -0.70064604, 87.60500336, 1210.34936523, 40.11000061, 0.00000000
1, 1.4899, 149, -0.03076549, -0.96777749, -0.30285755, -4.45413542, 10.97663879, 0.19111486, 15.03827477, -60.78109741, 41.13796997, -0.34433758, -0.12463872, -4.31419230, 0.99928617, 0.00304372, 0.00097380, 0.03764260, 0.02855441, 0.97339404, -0.69712418, 87.60500336, 1210.34936523, 40.11000061, 0.00000000
1, 1.4999, 150, -0.01858428, -0.97058207, -0.30711374, -3.25225282, 10.15442181, 0.67992216, 15.44048595, -61.79261780, 41.04280853, -0.37615216, -0.10009529, -4.21512604, 0.99931771, 0.00331244, 0.00075218, 0.03677826, 0.01668986, 0.97695303, -0.69286418, 87.60500336, 1210.34936523, 40.11000061, 0.00000000
1, 1.5099, 151, -0.00638497, -0.96828473, -0.31204081, -1.67366302, 8.24307251, 1.84781134, 15.47705078, -62.18843079, 41.44248199, -0.39225805, -0.09247827, -4.13083935, 0.99934411, 0.00344995, 0.00068313, 0.03604309, 0.00473650, 0.97502542, -0.68793511, 87.60500336, 1210.34936523, 40.11000061, 0.00000000
1, 1.5199, 152, 0.00563307, -0.96491683, -0.29763964, -2.07254457, 5.81126690, 2.41314673, 15.14796638, -61.74863815, 40.96668243, -0.41250971, -0.09766495, -4.06794548, 0.99936306, 0.00362780, 0.00072398, 0.03549488, -0.00729288, 0.97197729, -0.70233405, 87.60500336, 1210.34936523, 40.11000061, 0.00000000
1, 1.5299, 153, 0.01385220, -0.96610433, -0.29389691, -2.23905802, 4.10858297, 2.57122111, 15.18453217, -61.17690277, 41.04280853, -0.43455887, -0.10954672, -4.02074575, 0.99937677, 0.00382343, 0.00082235, 0.03508377, -0.01568102, 0.97354788, -0.70607364, 87.60500336, 1210.34936523, 40.11000061, 0.00000000
1, 1.5399, 154, 0.01507027, -0.96536499, -0.28929380, -1.34565353, 4.30257893, 2.67803550, 15.18453217, -61.17690277, 41.04280853, -0.44198945, -0.11406707, -4.01096010, 0.99937952, 0.00388954, 0.00085983, 0.03499863, -0.01708606, 0.97308272, -0.71067441, 87.60500336, 1210.34936523, 40.11000061, 0.00000000
1, 1.5499, 155, 0.00881934, -0.96589261, -0.28475061, -1.17954862, 6.50756407, 2.23169184, 15.69643497, -61.74863815, 41.29022598, -0.45329389, -0.11533516, -3.94207311, 0.99939984, 0.00398800, 0.00086983, 0.03439797, -0.01084600, 0.97371876, -0.71521676, 87.60500336, 1210.34936523, 40.11000061, 0.00000000
1, 1.5599, 156, -0.00134731, -0.96494997, -0.28830096, -2.42670798, 8.49731922, 1.67967772, 15.36735439, -62.36434555, 41.42345047, -0.47693679, -0.10522010, -3.85582447, 0.99942470, 0.00419058, 0.00077767, 0.03364557, -0.00056459, 0.97309899, -0.71166408, 87.60500336, 1210.34936523, 40.11000061, 0.00000000
1, 1.5699, 157, -0.00890673, -0.96238953, -0.29938024, -3.42594457, 8.75533009, 1.16081035, 15.22109699, -61.66067886, 41.46151352, -0.51054269, -0.08932567, -3.76863408, 0.99944890, 0.00447853, 0.00063259, 0.03288473, 0.00724080, 0.97107315, -0.70058066, 87.60500336, 1210.34936523, 40.11000061, 0.00000000
1, 1.5799, 158, -0.01160968, -0.95452595, -0.30181488, -3.69375420, 8.59855843, 1.17591214, 14.81888676, -63.77168274, 41.99440765, -0.54682100, -0.07400899, -3.68287134, 0.99947196, 0.00479018, 0.00049217, 0.03213628, 0.01022374, 0.96383107, -0.69814086, 87.60500336, 1210.34936523, 40.11000061, 0.00000000
1, 1.5899, 159, -0.01311562, -0.94813818, -0.30033943, -3.76234508, 7.76950455, 1.47510171, 14.81888676, -63.77168274, 41.99440765, -0.59032857, -0.07406414, -3.63911414, 0.99948227, 0.00516949, 0.00048242, 0.03175481, 0.01189827, 0.95812190, -0.69960999, 87.60500336, 1210.34936523, 40.11000061, 0.00000000
1, 1.5999, 160, -0.01465471, -0.94631565, -0.29742014, -2.77676702, 6.96160603, 2.03518510, 16.24490356, -62.54026413, 41.80408859, -0.61752081, -0.07186934, -3.56636477, 0.99950099, 0.00540576, 0.00045918, 0.03112029, 0.01339235, 0.95692998, -0.70252270, 87.60500336, 1210.34936523, 40.11000061, 0.00000000
1, 1.6099, 161, -0.01296641, -0.95172912, -0.29667133, -2.61894035, 6.43854618, 2.62136793, 15.33078861, -61.96853638, 41.36635590, -0.64315909, -0.07683553, -3.49678731, 0.99951833, 0.00563043, 0.00049895, 0.03051375, 0.01166885, 0.96278572, -0.70326674, 87.60500336, 1210.34936523, 40.11000061, 0.00000000
1, 1.6199, 162, -0.01297824, -0.95284992, -0.29320267, -3.25534487, 7.23808336, 2.74559450, 15.18453217, -62.01251602, 41.40441895, -0.67509699, -0.08046967, -3.41916466, 0.99953717, 0.00590962, 0.00052615, 0.02983701, 0.01158365, 0.96441472, -0.70672947, 87.60500336, 1210.34936523, 40.11000061, 0.00000000
1, 1.6299, 163, -0.01517777, -0.95553339, -0.29524586, -3.02836823, 8.01655769, 1.40773666, 14.81888676, -61.88057327, 41.99440765, -0.70474643, -0.06892328, -3.33831549, 0.99955648, 0.00616494, 0.00042206, 0.02913131, 0.01388127, 0.96765268, -0.70467985, 87.60500336, 1210.34936523, 40.11000061, 0.00000000
1, 1.6399, 164, -0.01400884, -0.96475923, -0.30277598, -2.25269556, 7.51164913, 0.11153165, 14.81888676, -61.88057327, 41.99440765, -0.73135132, -0.05750230, -3.30367970, 0.99956387, 0.00639401, 0.00031761, 0.02882865, 0.01299441, 0.97732979, -0.69714451, 87.60500336, 1210.34936523, 40.11000061, 0.00000000
1, 1.6499, 165, -0.00166209, -0.97544813, -0.31551743, -2.32329988, 5.90374279, -0.23846608, 15.00170898, -62.98005676, 42.18473053, -0.75411761, -0.03683354, -3.24811625, 0.99957657, 0.00658733, 0.00013479, 0.02834286, 0.00089317, 0.98844540, -0.68439782, 87.60500336, 1210.34936523, 40.11000061, 0.00000000
1, 1.6599, 166, 0.01167689, -0.97496897, -0.32007587, -3.02550292, 3.92210817, -0.06703917, 15.29422855, -61.83659363, 41.97537994, -0.78403658, -0.02394984, -3.21078992, 0.99958408, 0.00684512, 0.00001723, 0.02801653, -0.01216289, 0.98845798, -0.67983294, 87.60500336, 1210.34936523, 40.11000061, 0.00000000
1, 1.6699, 167, 0.02075154, -0.97037947, -0.31846696, -2.79583240, 2.74092889, 0.92696708, 15.47705078, -61.08895111, 41.74699402, -0.81174171, -0.02417959, -3.18160200, 0.99958944, 0.00708685, 0.00001427, 0.02776194, -0.02116145, 0.98436987, -0.68143511, 87.60500336, 1210.34936523, 40.11000061, 0.00000000
1, 1.6799, 168, 0.01821420, -0.96370733, -0.31269315, -2.99646020, 3.84127069, 1.75931644, 15.40392017, -61.00099564, 41.72796249, -0.84133810, -0.02885168, -3.13933635, 0.99959773, 0.00734613, 0.00005056, 0.02739355, -0.01868680, 0.97818607, -0.68720192, 87.60500336, 1210.34936523, 40.11000061, 0.00000000
1, 1.6899, 169, 0.00720672, -0.95764697, -0.30692390, -4.46706676, 7.06415272, 2.30618763, 15.40392017, -61.00099564, 41.72796249, -0.89323342, -0.02851172, -3.10113740, 0.99960345, 0.00779873, 0.00003779, 0.02706034, -0.00771237, 0.97282231, -0.69296080, 87.60500336, 1210.34936523, 40.11000061, 0.00000000
1, 1.6999, 170, -0.00485703, -0.94856554, -0.30628288, -5.45784998, 8.28199863, 1.86020887, 14.96514320, -63.50780487, 41.65183640, -0.94707757, -0.02009404, -3.01616836, 0.99961948, 0.00826647, -0.00004222, 0.02631854, 0.00444256, 0.96474409, -0.69358611, 87.60500336, 1210.34936523, 40.11000061, 0.00000000
1, 1.7099, 171, -0.01198345, -0.95391321, -0.30630678, -4.56829405, 6.71045113, 0.78732687, 15.44048595, -63.37586975, 41.32828903, -0.99215811, -0.00638889, -2.94959092, 0.99963135, 0.00865667, -0.00016710, 0.02573670, 0.01177766, 0.97095543, -0.69354796, 87.60500336, 1210.34936523, 40.11000061, 0.00000000
1, 1.7199, 172, -0.00850653, -0.95147705, -0.30480522, -2.74806571, 4.39861917, 0.31127444, 14.74575996, -62.27638626, 41.13796997, -1.01923752, 0.00456968, -2.90662503, 0.99963880, 0.00889053, -0.00026545, 0.02536100, 0.00852140, 0.96910787, -0.69503939, 87.60500336, 1210.34936523, 40.11000061, 0.00000000
1, 1.7299, 173, 0.00312927, -0.94946814, -0.29752544, -1.99115205, 3.85420656, 0.38540429, 15.29422855, -62.14445114, 41.30925751, -1.03880405, 0.01311635, -2.86866307, 0.99964565, 0.00905944, -0.00034133, 0.02502912, -0.00295257, 0.96747380, -0.70231247, 87.60500336, 1210.34936523, 40.11000061, 0.00000000
1, 1.7399, 174, 0.00818161, -0.95347708, -0.30556032, -2.43760538, 4.83738184, 0.91721135, 15.07484055, -62.32036591, 41.84215927, -1.07051945, 0.02014009, -2.85847592, 0.99964529, 0.00933462, -0.00040870, 0.02493958, -0.00788087, 0.97189713, -0.69427001, 87.60500336, 1210.34936523, 40.11000061, 0.00000000
1, 1.7499, 175, 0.00783272, -0.95475149, -0.32403436, -2.56454277, 5.47620630, 0.61462075, 15.07484055, -62.32036591, 41.84215927, -1.09564292, 0.03169648, -2.80436468, 0.99965495, 0.00955151, -0.00051047, 0.02446648, -0.00736015, 0.97371411, -0.67578578, 87.60500336, 1210.34936523, 40.11000061, 0.00000000
1, 1.7599, 176, 0.01305600, -0.95560580, -0.32890636, -2.02524781, 3.82133889, 0.27934778, 14.70919418, -63.19995117, 42.07053757, -1.11552501, 0.04119412, -2.76706100, 0.99966115, 0.00972312, -0.00059441, 0.02414016, -0.01239533, 0.97494376, -0.67090642, 87.60500336, 1210.34936523, 40.11000061, 0.00000000
1, 1.7699, 177, 0.01781157, -0.95621276, -0.32655114, -1.92334259, 2.15478492, 0.45493841, 15.11140537, -61.66067886, 41.44248199, -1.13454378, 0.04374162, -2.74500871, 0.99966413, 0.00988861, -0.00061873, 0.02394747, -0.01706152, 0.97589552, -0.67325491, 87.60500336, 1210.34936523, 40.11000061, 0.00000000
1, 1.7799, 178, 0.01820320, -0.95298433, -0.32400069, -0.89269316, 2.65464401, 0.81385994, 14.48980618, -61.61669922, 41.44248199, -1.14320791, 0.04448280, -2.71717143, 0.99966919, 0.00996419, -0.00062459, 0.02370451, -0.01742714, 0.97289771, -0.67580068, 87.60500336, 1210.34936523, 40.11000061, 0.00000000
1, 1.7899, 179, 0.01113484, -0.95084894, -0.32289338, -0.34608439, 4.56879425, 1.55556226, 15.18453217, -63.63974380, 41.95634842, -1.16110671, 0.04643634, -2.70820260, 0.99966943, 0.01011998, -0.00064454, 0.02362600, -0.01035194, 0.97089458, -0.67690533, 87.60500336, 1210.34936523, 40.11000061, 0.00000000
1, 1.7999, 180, 0.00596415, -0.94492197, -0.32269201, -1.33494031, 6.54805326, 1.77598250, 15.11140537, -61.79261780, 42.07053757, -1.17377949, 0.05047968, -2.64035177, 0.99968207, 0.01023011, -0.00067637, 0.02303365, -0.00512161, 0.96530277, -0.67709994, 87.60500336, 1210.34936523, 40.11000061, 0.00000000
1, 1.8099, 181, 0.00174201, -0.94010913, -0.32642660, -1.28873050, 6.30049896, 1.19055247, 15.11140537, -61.79261780, 42.07053757, -1.18602407, 0.05929848, -2.57672644, 0.99969369, 0.01033557, -0.00075003, 0.02247772, -0.00076818, 0.96074879, -0.67335999, 87.60500336, 1210.34936523, 40.11000061, 0.00000000
1, 1.8199, 182, 0.00944134, -0.93689370, -0.32795018, 0.42252851, 3.70879531, 0.99020255, 15.51361179, -63.11199188, 41.72796249, -1.18140519, 0.06175293, -2.53846049, 0.99970156, 0.01029505, -0.00076710, 0.02214369, -0.00836285, 0.95756990, -0.67183554, 87.60500336, 1210.34936523, 40.11000061, 0.00000000
1, 1.8299, 183, 0.01989992, -0.93311572, -0.32380897, 2.43136501, 1.16291678, 1.28209782, 14.81888676, -61.88057327, 41.67086411, -1.15692735, 0.05330118, -2.52357674, 0.99970663, 0.01008323, -0.00068732, 0.02201475, -0.01889681, 0.95348418, -0.67598307, 87.60500336, 1210.34936523, 40.11000061, 0.00000000
1, 1.8399, 184, 0.02655480, -0.92760062, -0.32323521, 2.67792344, 1.03822637, 1.68302310, 14.63606358, -61.52874374, 41.70893478, -1.15667963, 0.06137419, -2.54876804, 0.99970174, 0.01007935, -0.00075992, 0.02223382, -0.02567986, 0.94760370, -0.67656434, 87.60500336, 1210.34936523, 40.11000061, 0.00000000
1, 1.8499, 185, 0.02242023, -0.92704314, -0.32573786, 1.46322739, 3.26697087, 1.22382557, 15.40392017, -63.72769928, 41.80408859, -1.14168346, 0.06017303, -2.51403689, 0.99970973, 0.00994898, -0.00074352, 0.02193102, -0.02138076, 0.94704354, -0.67406160, 87.60500336, 1210.34936523, 40.11000061, 0.00000000
1, 1.8599, 186, 0.01484750, -0.93547606, -0.32578871, 0.23170969, 5.42753696, 0.72808951, 15.40392017, -63.72769928, 41.80408859, -1.13881218, 0.07054996, -2.46029592, 0.99972010, 0.00992233, -0.00082884, 0.02146129, -0.01370066, 0.95536590, -0.67401278, 87.60500336, 1210.34936523, 40.11000061, 0.00000000
1, 1.8699, 187, 0.01110447, -0.94771463, -0.33240947, 0.68407369, 6.06001568, 0.03687010, 15.14796638, -62.01251602, 41.61376953, -1.13135910, 0.08948683, -2.40279031, 0.99973130, 0.00985426, -0.00098771, 0.02095802, -0.00966841, 0.96752030, -0.66739333, 87.60500336, 1210.34936523, 40.11000061, 0.00000000
1, 1.8799, 188, 0.00890774, -0.96155429, -0.32865587, 2.24421835, 4.55038929, -0.29847297, 15.00170898, -61.92455292, 42.01344299, -1.10845530, 0.10678771, -2.36080623, 0.99974084, 0.00965169, -0.00113092, 0.02059047, -0.00714400, 0.98107123, -0.67115211, 87.60500336, 1210.34936523, 40.11000061, 0.00000000
1, 1.8899, 189, 0.00914182, -0.97676462, -0.32070103, 3.20290518, 2.97262692, 0.10488078, 15.14796638, -62.54026413, 41.86118317, -1.08281088, 0.11559339, -2.37256384, 0.99974072, 0.00942625, -0.00120411, 0.02069257, -0.00717366, 0.99578905, -0.67911607, 87.60500336, 1210.34936523, 40.11000061, 0.00000000
1, 1.8999, 190, 0.01018664, -0.98391175, -0.32477149, 2.80807018, 2.65705657, 0.32797241, 15.07484055, -63.33188629, 42.03247452, -1.05442989, 0.12090667, -2.34658480, 0.99974769, 0.00917797, -0.00124326, 0.02046579, -0.00810754, 1.00248873, -0.67505372, 87.60500336, 1210.34936523, 40.11000061, 0.00000000
1, 1.9099, 191, 0.00950261, -0.98370343, -0.32114682, 2.39202785, 2.45883608, 0.71180081, 15.07484055, -63.33188629, 42.03247452, -1.03021872, 0.12193942, -2.32122946, 0.99975407, 0.00896683, -0.00124596, 0.02024476, -0.00737077, 1.00183618, -0.67868650, 87.60500336, 1210.34936523, 40.11000061, 0.00000000
1, 1.9199, 192, 0.00733230, -0.97505170, -0.31489328, 2.15115714, 2.44783759, 1.27481246, 15.69643497, -61.66067886, 41.76602936, -1.00839841, 0.11758406, -2.29417467, 0.99976051, 0.00877751, -0.00120203, 0.02000929, -0.00524201, 0.99279022, -0.68494719, 87.60500336, 1210.34936523, 40.11000061, 0.00000000
1, 1.9299, 193, 0.00842209, -0.96807200, -0.31769279, 1.96804142, 1.92181849, 1.87955475, 15.58674240, -62.71617889, 41.78505707, -0.98845100, 0.10582510, -2.27018929, 0.99976635, 0.00860576, -0.00109416, 0.01980113, -0.00648904, 0.98544711, -0.68215430, 87.60500336, 1210.34936523, 40.11000061, 0.00000000
1, 1.9399, 194, 0.01018204, -0.95808440, -0.32117110, 1.12760699, 1.41519701, 2.02968025, 15.33078861, -63.94759750, 42.29892349, -0.99308074, 0.09398156, -2.28989482, 0.99976259, 0.00864803, -0.00099311, 0.01997390, -0.00847960, 0.97527194, -0.67867970, 87.60500336, 1210.34936523, 40.11000061, 0.00000000
1, 1.9499, 195, 0.01795225, -0.94940186, -0.31933174, 0.11555160, 0.70821232, 1.75423872, 15.62330818, -62.58424377, 42.47021484, -0.99179405, 0.07957212, -2.27765274, 0.99976498, 0.00863941, -0.00086625, 0.01986820, -0.01647129, 0.96671647, -0.68051720, 87.60500336, 1210.34936523, 40.11000061, 0.00000000
1, 1.9599, 196, 0.02210475, -0.94196045, -0.31557158, 0.72010243, 0.32923007, 1.07644546, 15.62330818, -62.58424377, 42.47021484, -0.98451459, 0.07039774, -2.27119684, 0.99976665, 0.00857754, -0.00078446, 0.01981262, -0.02082401, 0.95919943, -0.68427902, 87.60500336, 1210.34936523, 40.11000061, 0.00000000
1, 1.9699, 197, 0.01884703, -0.94141871, -0.30834192, 0.45209497, 1.35116839, 0.36046159, 15.51361179, -62.36434555, 42.18473053, -0.97986066, 0.07124600, -2.25727749, 0.99976933, 0.00853688, -0.00079002, 0.01969114, -0.01762827, 0.95853841, -0.69151080, 87.60500336, 1210.34936523, 40.11000061, 0.00000000
1, 1.9799, 198, 0.00763220, -0.94459099, -0.30110273, -1.05844879, 3.64015579, -0.78211808, 14.89201736, -61.70465851, 42.01344299, -0.99010479, 0.09016646, -2.22511101, 0.99977398, 0.00862327, -0.00095444, 0.01940900, -0.00620816, 0.96177810, -0.69874853, 87.60500336, 1210.34936523, 40.11000061, 0.00000000
1, 1.9899, 199, -0.00020256, -0.94693464, -0.31074333, -1.65035081, 4.67556715, -1.42651463, 15.03827477, -62.32036591, 42.50827408, -1.01646268, 0.10948196, -2.22362232, 0.99977213, 0.00884998, -0.00112731, 0.01939430, 0.00204083, 0.96444345, -0.68910170, 87.60500336, 1210.34936523, 40.11000061, 0.00000000
1, 1.9999, 200, -0.00115738, -0.95016134, -0.31985357, -0.34245566, 2.91982126, -1.52016377, 15.47705078, -63.68372726, 42.16569901, -1.01963174, 0.13314240, -2.20070267, 0.99977559, 0.00887389, -0.00133250, 0.01919246, 0.00334000, 0.96795774, -0.67998570, 87.60500336, 1210.34936523, 40.11000061, 0.00000000
1, 2.0099, 201, 0.00248496, -0.95229477, -0.31841373, 1.13236177, -0.24978311, -1.11669922, 15.47705078, -63.68372726, 42.16569901, -1.00838029, 0.14294729, -2.20670414, 0.99977529, 0.00877400, -0.00141662, 0.01924420, -0.00003327, 0.96997380, -0.68142700, 87.60500336, 1210.34936523, 40.11000061, 0.00000000
1, 2.0199, 202, 0.01254205, -0.95359391, -0.31951317, 1.71381652, -2.16070056, -0.45552072, 15.36735439, -62.10047150, 42.43214417, -0.99150956, 0.14043921, -2.22880006, 0.99977285, 0.00862696, -0.00139356, 0.01943737, -0.01006221, 0.97102010, -0.68033189, 87.60500336, 1210.34936523, 40.11000061, 0.00000000
1, 2.0299, 203, 0.01888112, -0.95784938, -0.31827447, 2.36440015, -1.49456072, 0.04868602, 15.18453217, -62.14445114, 42.26086044, -0.96802855, 0.13525516, -2.24303961, 0.99977231, 0.00842281, -0.00134540, 0.01956228, -0.01649340, 0.97489929, -0.68157732, 87.60500336, 1210.34936523, 40.11000061, 0.00000000
1, 2.0399, 204, 0.01410890, -0.96239936, -0.31639004, 2.52727675, 0.20382430, 0.15420730, 15.87925720, -62.49628448, 42.14667130, -0.95239282, 0.13669285, -2.28201079, 0.99976665, 0.00828569, -0.00135809, 0.01990236, -0.01175400, 0.97906125, -0.68346840, 87.60500336, 1210.34936523, 40.11000061, 0.00000000
1, 2.0499, 205, 0.00772817, -0.96382874, -0.31674692, 2.49737167, 1.19510579, 0.38607895, 15.98895359, -63.55178452, 42.07053757, -0.92727661, 0.13678831, -2.26967764, 0.99977064, 0.00806669, -0.00135369, 0.01979505, -0.00534233, 0.98017550, -0.68311667, 87.60500336, 1210.34936523, 40.11000061, 0.00000000
1, 2.0599, 206, 0.00372233, -0.96523738, -0.31618538, 1.84906483, 1.11741841, 0.63252568, 15.98895359, -63.55178452, 42.07053757, -0.90863669, 0.13429700, -2.25725794, 0.99977410, 0.00790464, -0.00132788, 0.01968709, -0.00135768, 0.98120010, -0.68368447, 87.60500336, 1210.34936523, 40.11000061, 0.00000000
1, 2.0699, 207, 0.00142367, -0.96104598, -0.31931883, 0.55669826, 0.84569907, 0.89444232, 15.73299980, -63.94759750, 41.86118317, -0.90294099, 0.12846377, -2.24647546, 0.99977636, 0.00785607, -0.00127527, 0.01959348, 0.00085737, 0.97682863, -0.68055403, 87.60500336, 1210.34936523, 40.11000061, 0.00000000
1, 2.0799, 208, 0.00282785, -0.95726347, -0.32404548, 0.63256323, 0.90316463, 0.56143039, 15.44048595, -63.59576416, 42.35601807, -0.89649445, 0.12596937, -2.23619103, 0.99977863, 0.00780036, -0.00125170, 0.01950400, -0.00061845, 0.97295493, -0.67582893, 87.60500336, 1210.34936523, 40.11000061, 0.00000000
1, 2.0899, 209, -0.00143154, -0.95487976, -0.32253650, 0.66421366, 1.90403771, 0.23080954, 15.14796638, -62.71617889, 42.85084915, -0.91474479, 0.10153568, -2.25648952, 0.99977404, 0.00796357, -0.00104304, 0.01968260, 0.00353442, 0.97055298, -0.67733848, 87.60500336, 1210.34936523, 40.11000061, 0.00000000
1, 2.0999, 210, -0.00373218, -0.94841766, -0.31873077, -0.71518570, 4.63037968, -0.30531424, 15.14796638, -62.14445114, 41.91828537, -0.92142338, 0.11901170, -2.21342850, 0.99978083, 0.00801928, -0.00119365, 0.01930562, 0.00568393, 0.96443647, -0.68113899, 87.60500336, 1210.34936523, 40.11000061, 0.00000000
1, 2.1099, 211, -0.00441985, -0.94397426, -0.31889102, -1.08007240, 5.55639505, -0.44293424, 15.47705078, -61.88057327, 42.10860443, -0.93163788, 0.14071375, -2.16198921, 0.99978846, 0.00810536, -0.00138108, 0.01885517, 0.00673797, 0.96018231, -0.68097496, 87.60500336, 1210.34936523, 40.11000061, 0.00000000
1, 2.1199, 212, 0.00055863, -0.94862461, -0.31705466, -0.06820517, 4.34241390, -0.22545646, 15.47705078, -61.88057327, 42.10860443, -0.93184012, 0.15653008, -2.12147212, 0.99979490, 0.00810506, -0.00151624, 0.01850054, 0.00208424, 0.96489942, -0.68280941, 87.60500336, 1210.34936523, 40.11000061, 0.00000000
1, 2.1299, 213, 0.00765062, -0.95130211, -0.31265804, 1.18122768, 2.12995744, 0.30429041, 15.22109699, -62.14445114, 41.88021851, -0.91976810, 0.16034332, -2.10041237, 0.99979901, 0.00799940, -0.00154609, 0.01831669, -0.00486124, 0.96745861, -0.68720752, 87.60500336, 1210.34936523, 40.11000061, 0.00000000
1, 2.1399, 214, 0.01383350, -0.95580882, -0.30714604, 2.79900050, 0.50021118, 1.05610061, 15.00170898, -63.77168274, 42.35601807, -0.88984907, 0.15889031, -2.13220692, 0.99979603, 0.00773817, -0.00153078, 0.01859459, -0.01108138, 0.97156346, -0.69272602, 87.60500336, 1210.34936523, 40.11000061, 0.00000000
1, 2.1499, 215, 0.01355921, -0.96190357, -0.30362359, 2.65246558, 0.46076840, 1.30181634, 15.84269142, -62.54026413, 42.48923874, -0.86322260, 0.14797646, -2.12398887, 0.99979925, 0.00750773, -0.00143070, 0.01852396, -0.01091395, 0.97712338, -0.69625711, 87.60500336, 1210.34936523, 40.11000061, 0.00000000
1, 2.1599, 216, 0.00616927, -0.96791279, -0.30054745, 0.61795020, 2.23821521, 0.76532602, 15.18453217, -64.78320312, 42.64150238, -0.85675585, 0.14772512, -2.10039139, 0.99980348, 0.00745164, -0.00142592, 0.01831818, -0.00360652, 0.98288751, -0.69933712, 87.60500336, 1210.34936523, 40.11000061, 0.00000000
1, 2.1699, 217, -0.00069040, -0.97422969, -0.30466756, -0.55235261, 4.09589767, -0.07095295, 15.18453217, -64.78320312, 42.64150238, -0.86182302, 0.16124959, -2.06166697, 0.99980915, 0.00749421, -0.00154220, 0.01797936, 0.00340146, 0.98922956, -0.69521624, 87.60500336, 1210.34936523, 40.11000061, 0.00000000
1, 2.1799, 218, -0.00250519, -0.97436172, -0.30573449, -0.52323931, 3.67581582, -0.60722303, 15.25766277, -63.02403641, 42.79375458, -0.86664844, 0.17854673, -2.02862859, 0.99981374, 0.00753408, -0.00169170, 0.01768988, 0.00550583, 0.98945540, -0.69414711, 87.60500336, 1210.34936523, 40.11000061, 0.00000000
1, 2.1899, 219, 0.00188504, -0.97021395, -0.30562600, -0.42026699, 2.32259631, -0.70630109, 15.47705078, -63.11199188, 43.04117203, -0.85330319, 0.17611748, -2.04986310, 0.99981135, 0.00741771, -0.00166982, 0.01787551, 0.00132340, 0.98530620, -0.69425493, 87.60500336, 1210.34936523, 40.11000061, 0.00000000
1, 2.1999, 220, 0.00970202, -0.96109307, -0.30645984, -0.30496725, 1.39633095, -0.67339247, 15.18453217, -62.67220306, 42.45117950, -0.85620481, 0.18689026, -2.03869367, 0.99981272, 0.00744152, -0.00176354, 0.01777731, -0.00650892, 0.97601503, -0.69342375, 87.60500336, 1210.34936523, 40.11000061, 0.00000000
1, 2.2099, 221, 0.01488242, -0.95510876, -0.30805263, -0.61117768, 1.65237701, -0.73738575, 14.96514320, -62.93607712, 42.67956161, -0.86214077, 0.19907890, -2.02525592, 0.99981427, 0.00749164, -0.00186993, 0.01765917, -0.01149298, 0.97011018, -0.69182909, 87.60500336, 1210.34936523, 40.11000061, 0.00000000
1, 2.2199, 222, 0.01209975, -0.95203358, -0.31043014, -1.30169392, 2.72851515, -0.76538342, 14.96514320, -62.93607712, 42.67956161, -0.87485135, 0.21490753, -2.00163770, 0.99981678, 0.00760051, -0.00200843, 0.01745184, -0.00845682, 0.96721178, -0.68944800, 87.60500336, 1210.34936523, 40.11000061, 0.00000000
1, 2.2299, 223, 0.00916930, -0.95510900, -0.30949959, -1.03920829, 3.17373252, -0.58104330, 14.78232574, -62.27638626, 42.77472687, -0.88487124, 0.23039244, -1.97323680, 0.99982023, 0.00768610, -0.00214316, 0.01720281, -0.00524333, 0.97049707, -0.69037426, 87.60500336, 1210.34936523, 40.11000061, 0.00000000
1, 2.2399, 224, 0.00649778, -0.95969719, -0.30710021, -0.19602692, 2.38329339, -0.10804865, 14.89201736, -63.63974380, 43.04117203, -0.85850936, 0.20800854, -1.99145627, 0.99981958, 0.00745915, -0.00194508, 0.01736374, -0.00250487, 0.97505498, -0.69277382, 87.60500336, 1210.34936523, 40.11000061, 0.00000000
1, 2.2499, 225, 0.00275073, -0.96312118, -0.30411959, 0.43313962, 1.43650508, 0.37989202, 15.18453217, -62.71617889, 42.73666000, -0.85398769, 0.20890348, -1.97666788, 0.99982202, 0.00741981, -0.00195125, 0.01723473, 0.00090024, 0.97805995, -0.69576216, 87.60500336, 1210.34936523, 40.11000061, 0.00000000
1, 2.2599, 226, 0.00268869, -0.96114022, -0.30413684, 0.51883620, 1.17246664, 0.83111483, 15.62330818, -64.03556061, 42.67956161, -0.84862506, 0.20468879, -1.96298015, 0.99982452, 0.00737389, -0.00191279, 0.01711567, 0.00090758, 0.97598284, -0.69574654, 87.60500336, 1210.34936523, 40.11000061, 0.00000000
1, 2.2699, 227, 0.00320269, -0.96151012, -0.30930299, -0.07676846, 1.99545550, 0.58656496, 15.62330818, -64.03556061, 42.67956161, -0.84912109, 0.20537315, -1.94218314, 0.99982756, 0.00737846, -0.00191749, 0.01693416, 0.00037329, 0.97631657, -0.69058102, 87.60500336, 1210.34936523, 40.11000061, 0.00000000
1, 2.2799, 228, 0.00403188, -0.95597589, -0.31153110, -0.77885258, 2.74956179, 0.30573609, 15.55017757, -62.93607712, 43.02214050, -0.85655975, 0.21109487, -1.91504657, 0.99983096, 0.00744298, -0.00196675, 0.01669689, -0.00039420, 0.97086549, -0.68835151, 87.60500336, 1210.34936523, 40.11000061, 0.00000000
1, 2.2899, 229, 0.00528550, -0.95334917, -0.31460619, -0.98963362, 2.85709476, -0.07808097, 15.55017757, -63.55178452, 42.33699036, -0.88122141, 0.21561885, -1.92739570, 0.99982744, 0.00765728, -0.00201064, 0.01680391, -0.00151600, 0.96847385, -0.68527234, 87.60500336, 1210.34936523, 40.11000061, 0.00000000
1, 2.2999, 230, 0.01107343, -0.95055676, -0.31621522, -0.89026034, 2.14110661, -0.32195580, 15.36735439, -63.19995117, 42.29892349, -0.88987750, 0.22540499, -1.90799415, 0.99982959, 0.00773172, -0.00209599, 0.01663381, -0.00720504, 0.96603262, -0.68365759, 87.60500336, 1210.34936523, 40.11000061, 0.00000000
1, 2.3099, 231, 0.01322714, -0.94434553, -0.31168577, -0.72453851, 1.80075002, -0.41751000, 15.03827477, -63.11199188, 42.45117950, -0.89690799, 0.23502779, -1.89214551, 0.99983120, 0.00779197, -0.00217989, 0.01649474, -0.00918501, 0.95995498, -0.68818420, 87.60500336, 1210.34936523, 40.11000061, 0.00000000
1, 2.3199, 232, 0.01210572, -0.94563144, -0.30844575, -0.51571250, 2.41907859, -0.35241449, 15.03827477, -63.11199188, 42.45117950, -0.90176243, 0.24597745, -1.87023902, 0.99983382, 0.00783318, -0.00227463, 0.01630275, -0.00788785, 0.96133298, -0.69142210, 87.60500336, 1210.34936523, 40.11000061, 0.00000000
1, 2.3299, 233, 0.01047097, -0.94825572, -0.30786705, -0.66746300, 3.27501845, -0.29879844, 15.00170898, -61.66067886, 42.43214417, -0.90801549, 0.25910833, -1.84003186, 0.99983746, 0.00788650, -0.00238801, 0.01603815, -0.00604388, 0.96406430, -0.69199818, 87.60500336, 1210.34936523, 40.11000061, 0.00000000
1, 2.3399, 234, 0.00740873, -0.95248777, -0.31113076, -0.75575715, 3.50131273, -0.53986698, 14.92858315, -63.15597153, 42.73666000, -0.92360121, 0.26774791, -1.84750485, 0.99983519, 0.00802111, -0.00246610, 0.01610242, -0.00274681, 0.96845049, -0.68873096, 87.60500336, 1210.34936523, 40.11000061, 0.00000000
1, 2.3499, 235, 0.00334822, -0.95627886, -0.31427914, -0.11810307, 2.56455374, -0.66698217, 14.96514320, -64.12351990, 42.56536865, -0.92447186, 0.28214991, -1.82524621, 0.99983793, 0.00802719, -0.00259032, 0.01590717, 0.00148498, 0.97242373, -0.68557882, 87.60500336, 1210.34936523, 40.11000061, 0.00000000
1, 2.3599, 236, 0.00714600, -0.96683961, -0.31185189, 0.96203160, 1.91918373, -0.56080723, 15.29422855, -63.81566238, 42.60343552, -0.91462475, 0.29351538, -1.80888569, 0.99984062, 0.00794007, -0.00268699, 0.01576385, -0.00208508, 0.98287165, -0.68800676, 87.60500336, 1210.34936523, 40.11000061, 0.00000000
1, 2.3699, 237, 0.01054444, -0.97297049, -0.31435096, 1.31409287, 1.32476211, 0.28695568, 15.14796638, -63.68372726, 42.94601059, -0.90129161, 0.29495576, -1.79553211, 0.99984336, 0.00782385, -0.00269681, 0.01564755, -0.00539132, 0.98879033, -0.68551064, 87.60500336, 1210.34936523, 40.11000061, 0.00000000
1, 2.3799, 238, 0.01483921, -0.97703534, -0.30962563, 1.61334085, 1.02581382, 0.87741745, 15.14796638, -63.68372726, 42.94601059, -0.88498157, 0.28984892, -1.78318107, 0.99984628, 0.00768252, -0.00264920, 0.01554051, -0.00974445, 0.99258745, -0.69024044, 87.60500336, 1210.34936523, 40.11000061, 0.00000000
1, 2.3899, 239, 0.01120123, -0.96981615, -0.30281380, -0.06417210, 1.98929203, 0.97311956, 15.18453217, -61.70465851, 42.54634094, -0.86905026, 0.28146353, -1.80305314, 0.99984479, 0.00754421, -0.00257518, 0.01571483, -0.00620579, 0.98516738, -0.69705588, 87.60500336, 1210.34936523, 40.11000061, 0.00000000
1, 2.3999, 240, 0.00341471, -0.96179807, -0.30822584, -1.24046731, 3.80521870, 0.59301710, 15.14796638, -61.92455292, 42.88891602, -0.88090867, 0.28777796, -1.76494551, 0.99984908, 0.00764769, -0.00262936, 0.01538164, 0.00155961, 0.97709101, -0.69164491, 87.60500336, 1210.34936523, 40.11000061, 0.00000000
1, 2.4099, 241, 0.00072520, -0.95768511, -0.31256407, -0.74086219, 3.89291573, 0.71638024, 15.58674240, -62.05649185, 43.00310516, -0.88776183, 0.29320747, -1.72566664, 0.99985361, 0.00770767, -0.00267501, 0.01503839, 0.00436266, 0.97314507, -0.68730348, 87.60500336, 1210.34936523, 40.11000061, 0.00000000
1, 2.4199, 242, 0.00508077, -0.95282292, -0.31334317, -0.01322759, 2.43711853, 0.89448720, 15.62330818, -62.32036591, 43.00310516, -0.88751900, 0.29237100, -1.69971836, 0.99985713, 0.00770626, -0.00266593, 0.01481204, 0.00003299, 0.96831727, -0.68652380, 87.60500336, 1210.34936523, 40.11000061, 0.00000000
1, 2.4299, 243, 0.01027654, -0.94724411, -0.31235412, 0.09012723, 1.01500165, 0.81153774, 15.62330818, -62.32036591, 43.00310516, -0.88644964, 0.28785259, -1.68754792, 0.99985886, 0.00769780, -0.00262555, 0.01470618, -0.00522015, 0.96271706, -0.68751335, 87.60500336, 1210.34936523, 40.11000061, 0.00000000
1, 2.4399, 244, 0.01388374, -0.94740868, -0.31406972, -0.42418668, 0.89629692, 0.47662795, 15.25766277, -62.49628448, 42.77472687, -0.90439558, 0.29055089, -1.71908939, 0.99985343, 0.00785331, -0.00265356, 0.01498079, -0.00886600, 0.96297157, -0.68579662, 87.60500336, 1210.34936523, 40.11000061, 0.00000000
1, 2.4499, 245, 0.01389668, -0.94552761, -0.31544065, -1.14267731, 1.61739004, 0.10726379, 14.74575996, -61.88057327, 42.71763229, -0.91560841, 0.29462311, -1.70329154, 0.99985468, 0.00795098, -0.00268946, 0.01484241, -0.00879206, 0.96143180, -0.68441987, 87.60500336, 1210.34936523, 40.11000061, 0.00000000
1, 2.4599, 246, 0.00939157, -0.94283026, -0.31473207, -0.80173385, 2.40053463, -0.40466407, 15.29422855, -62.10047150, 42.77472687, -0.92330307, 0.30602202, -1.68171406, 0.99985665, 0.00801716, -0.00278841, 0.01465315, -0.00413631, 0.95891178, -0.68512481, 87.60500336, 1210.34936523, 40.11000061, 0.00000000
1, 2.4699, 247, 0.01333501, -0.95075965, -0.30883831, 0.61686510, 2.62206674, -0.68560022, 15.69643497, -63.37586975, 43.07923508, -0.91681141, 0.32078004, -1.65904272, 0.99985957, 0.00795920, -0.00291477, 0.01445445, -0.00783319, 0.96681309, -0.69101769, 87.60500336, 1210.34936523, 40.11000061, 0.00000000
1, 2.4799, 248, 0.01636025, -0.95988125, -0.30557847, 0.82051408, 2.16306829, -0.85407805, 15.69643497, -63.37586975, 43.07923508, -0.90833396, 0.33569103, -1.64127350, 0.99986213, 0.00788382, -0.00304259, 0.01429859, -0.01060246, 0.97578752, -0.69427842, 87.60500336, 1210.34936523, 40.11000061, 0.00000000
1, 2.4899, 249, 0.01680616, -0.96255487, -0.30574659, 0.90921199, 1.67718983, -0.47784165, 15.18453217, -64.25545502, 42.94601059, -0.88563097, 0.35178402, -1.66819799, 0.99985981, 0.00768297, -0.00318198, 0.01453303, -0.01080026, 0.97824436, -0.69411224, 87.60500336, 1210.34936523, 40.11000061, 0.00000000
1, 2.4999, 250, 0.01672025, -0.96436846, -0.30683741, 0.73052031, 0.82698727, 0.01460157, 15.00170898, -63.99157715, 42.86988068, -0.87820935, 0.35424066, -1.66036665, 0.99986124, 0.00761812, -0.00320195, 0.01446474, -0.01054668, 0.97974026, -0.69302541, 87.60500336, 1210.34936523, 40.11000061, 0.00000000
1, 2.5099, 251, 0.01562159, -0.96510446, -0.30365479, 0.31169769, 1.04157948, 0.33680418, 15.22109699, -62.36434555, 42.62246704, -0.87492365, 0.35431254, -1.64944744, 0.99986291, 0.00758974, -0.00320144, 0.01436955, -0.00943453, 0.98038048, -0.69620943, 87.60500336, 1210.34936523, 40.11000061, 0.00000000
1, 2.5199, 252, 0.01179527, -0.96466535, -0.30215502, -0.61310440, 1.97580123, 0.48232296, 14.48980618, -61.96853638, 42.69859695, -0.88073850, 0.35593244, -1.62912023, 0.99986500, 0.00764085, -0.00321495, 0.01419191, -0.00559668, 0.97998387, -0.69770849, 87.60500336, 1210.34936523, 40.11000061, 0.00000000
1, 2.5299, 253, 0.00802218, -0.96459675, -0.30622637, -1.35433888, 2.55236793, 0.54944760, 14.48980618, -61.96853638, 42.69859695, -0.89387792, 0.35873756, -1.60303795, 0.99986726, 0.00775588, -0.00323929, 0.01396377, -0.00177800, 0.98010856, -0.69363379, 87.60500336, 1210.34936523, 40.11000061, 0.00000000
1, 2.5399, 254, 0.00686487, -0.96171814, -0.31012601, -1.29851294, 2.32980371, 0.54459757, 15.33078861, -62.10047150, 43.13633347, -0.90980744, 0.34774265, -1.61974716, 0.99986440, 0.00789576, -0.00314644, 0.01410988, -0.00063390, 0.97747147, -0.68973053, 87.60500336, 1210.34936523, 40.11000061, 0.00000000
1, 2.5499, 255, 0.00675976, -0.96281952, -0.31391954, -1.04881167, 0.86021936, 0.28441939, 14.89201736, -63.68372726, 43.13633347, -0.92015517, 0.34774771, -1.61058652, 0.99986482, 0.00798630, -0.00314712, 0.01402967, -0.00068302, 0.97881353, -0.68593413, 87.60500336, 1210.34936523, 40.11000061, 0.00000000
1, 2.5599, 256, 0.00881267, -0.96419841, -0.30166116, -0.58526790, -0.48789385, 0.04371884, 15.55017757, -63.59576416, 42.56536865, -0.92607683, 0.34579948, -1.61502945, 0.99986392, 0.00803809, -0.00313116, 0.01406841, -0.00276473, 0.98032677, -0.69819045, 87.60500336, 1210.34936523, 40.11000061, 0.00000000
1, 2.5699, 257, 0.01306234, -0.97194099, -0.29573196, 0.90714765, -0.81812614, -0.03810365, 15.76956558, -64.69524384, 42.85084915, -0.91711330, 0.34358472, -1.62299490, 0.99986356, 0.00795993, -0.00311129, 0.01413831, -0.00705200, 0.98802406, -0.70412076, 87.60500336, 1210.34936523, 40.11000061, 0.00000000
1, 2.5799, 258, 0.01499378, -0.97927368, -0.29090202, 1.52582359, -0.42499247, 0.35499114, 15.76956558, -64.69524384, 42.85084915, -0.90190500, 0.33887786, -1.62605953, 0.99986440, 0.00782774, -0.00306855, 0.01416579, -0.00904570, 0.99509978, -0.70895505, 87.60500336, 1210.34936523, 40.11000061, 0.00000000
1, 2.5899, 259, 0.01248023, -0.97769207, -0.29304114, -0.62911129, 0.09186701, 0.24940321, 15.25766277, -64.38739014, 43.26955795, -0.86246347, 0.33071280, -1.66631174, 0.99986219, 0.00748355, -0.00299506, 0.01451861, -0.00661514, 0.99327433, -0.70682025, 87.60500336, 1210.34936523, 40.11000061, 0.00000000
1, 2.5999, 260, 0.00828238, -0.96953303, -0.30219752, -2.08595419, 1.04618466, -0.04248529, 14.74575996, -63.06801224, 43.30761719, -0.88317353, 0.33440456, -1.65632641, 0.99986196, 0.00766405, -0.00302923, 0.01443069, -0.00247617, 0.98481101, -0.69766891, 87.60500336, 1210.34936523, 40.11000061, 0.00000000
1, 2.6099, 261, 0.00619399, -0.95937246, -0.30473202, -1.91931593, 0.79359770, -0.25924519, 14.85545158, -61.66067886, 42.88891602, -0.90225261, 0.33936521, -1.64943016, 0.99986136, 0.00783008, -0.00307444, 0.01436967, -0.00030126, 0.97499663, -0.69512862, 87.60500336, 1210.34936523, 40.11000061, 0.00000000
1, 2.6199, 262, 0.01012026, -0.95227110, -0.30285364, -1.48195910, -0.07896333, -0.20861474, 15.36735439, -61.92455292, 42.60343552, -0.91709769, 0.34109971, -1.65070248, 0.99986017, 0.00795936, -0.00309153, 0.01438025, -0.00417108, 0.96818280, -0.69700205, 87.60500336, 1210.34936523, 40.11000061, 0.00000000
1, 2.6299, 263, 0.01236312, -0.94587225, -0.29459888, -1.22061574, 0.33022869, 0.08044129, 15.36735439, -61.92455292, 42.60343552, -0.92925280, 0.34137869, -1.64720559, 0.99985975, 0.00806548, -0.00309524, 0.01434939, -0.00640783, 0.96200871, -0.70525324, 87.60500336, 1210.34936523, 40.11000061, 0.00000000
1, 2.6399, 264, 0.01221997, -0.94446689, -0.29492882, -1.31573761, 0.68715447, 0.24644107, 14.74575996, -63.68372726, 42.69859695, -0.91681576, 0.33325601, -1.68076026, 0.99985653, 0.00795709, -0.00302514, 0.01464307, -0.00629161, 0.96071416, -0.70492172, 87.60500336, 1210.34936523, 40.11000061, 0.00000000
1, 2.6499, 265, 0.01527057, -0.94457608, -0.29680392, -1.19123530, 0.53089887, 0.41855803, 14.96514320, -64.65126801, 42.69859695, -0.92863315, 0.33095559, -1.67429626, 0.99985659, 0.00806067, -0.00300612, 0.01458652, -0.00947037, 0.96071404, -0.70304906, 87.60500336, 1210.34936523, 40.11000061, 0.00000000
1, 2.6599, 266, 0.01639189, -0.94404846, -0.30226469, -0.94353479, 0.44223323, 0.71476722, 15.51361179, -63.37586975, 42.98407745, -0.93797410, 0.32556444, -1.66776133, 0.99985701, 0.00814303, -0.00295981, 0.01452965, -0.01067346, 0.96036017, -0.69758594, 87.60500336, 1210.34936523, 40.11000061, 0.00000000
1, 2.6699, 267, 0.01389616, -0.94800323, -0.30715093, -0.83201140, 0.36103871, 0.48420101, 15.40392017, -62.93607712, 42.73666000, -0.94622910, 0.32210985, -1.66273272, 0.99985707, 0.00821562, -0.00293035, 0.01448581, -0.00825564, 0.96446550, -0.69269764, 87.60500336, 1210.34936523, 40.11000061, 0.00000000
1, 2.6799, 268, 0.01259142, -0.95363343, -0.30705172, -0.46830875, 0.56055629, -0.00490989, 15.40392017, -62.93607712, 42.73666000, -0.95082796, 0.32392466, -1.65738702, 0.99985743, 0.00825566, -0.00294638, 0.01443891, -0.00695217, 0.97020519, -0.69279516, 87.60500336, 1210.34936523, 40.11000061, 0.00000000
1, 2.6899, 269, 0.01055184, -0.95667642, -0.30540353, 0.10665549, 0.89583212, -0.29845163, 14.96514320, -63.81566238, 42.77472687, -0.91543090, 0.31548765, -1.69130576, 0.99985576, 0.00794702, -0.00287066, 0.01473637, -0.00490237, 0.97311854, -0.69444531, 87.60500336, 1210.34936523, 40.11000061, 0.00000000
1, 2.6999, 270, 0.00802192, -0.96084768, -0.30223039, 0.17526770, 1.53419971, -0.47860214, 14.81888676, -62.18843079, 42.66053009, -0.91349661, 0.32485548, -1.67826807, 0.99985731, 0.00792927, -0.00295125, 0.01462200, -0.00241984, 0.97679752, -0.69762671, 87.60500336, 1210.34936523, 40.11000061, 0.00000000
1, 2.7099, 271, 0.00769364, -0.96007180, -0.30145919, -0.18849283, 2.44420815, -0.68687516, 15.07484055, -61.83659363, 43.07923508, -0.91505986, 0.33906725, -1.65721560, 0.99985951, 0.00794166, -0.00307399, 0.01443728, -0.00187095, 0.97603142, -0.69839644, 87.60500336, 1210.34936523, 40.11000061, 0.00000000
1, 2.7199, 272, 0.01014202, -0.96107388, -0.30728567, -0.27637821, 2.16820049, -0.63967413, 15.11140537, -62.23241043, 43.36471558, -0.91753632, 0.35196161, -1.63862157, 0.99986136, 0.00796215, -0.00318552, 0.01427406, -0.00407646, 0.97707647, -0.69256794, 87.60500336, 1210.34936523, 40.11000061, 0.00000000
1, 2.7299, 273, 0.01486465, -0.96138096, -0.31252843, 0.12009796, 1.01203072, -0.04995350, 14.67262936, -64.16749573, 43.04117203, -0.91619539, 0.35561910, -1.62918365, 0.99986261, 0.00795026, -0.00321661, 0.01419150, -0.00866675, 0.97737956, -0.68732440, 87.60500336, 1210.34936523, 40.11000061, 0.00000000
1, 2.7399, 274, 0.02132679, -0.96025914, -0.31389591, 0.41217491, -0.27991319, 0.39660552, 14.67262936, -64.16749573, 43.04117203, -0.91237754, 0.37627053, -1.67173266, 0.99985695, 0.00791312, -0.00339927, 0.01456142, -0.01504907, 0.97620547, -0.68595719, 87.60500336, 1210.34936523, 40.11000061, 0.00000000
1, 2.7499, 275, 0.02533224, -0.95683759, -0.31450456, -0.23371300, -0.89220214, 0.80758858, 14.81888676, -61.61669922, 42.27989578, -0.91482240, 0.36579639, -1.67763758, 0.99985629, 0.00793562, -0.00330860, 0.01461360, -0.01887713, 0.97277904, -0.68534756, 87.60500336, 1210.34936523, 40.11000061, 0.00000000
1, 2.7599, 276, 0.02584876, -0.95470864, -0.31368369, -0.48649499, -0.51480496, 0.69324827, 15.25766277, -62.62821960, 42.67956161, -0.91973382, 0.35760048, -1.68029952, 0.99985582, 0.00797944, -0.00323790, 0.01463726, -0.01955981, 0.97073233, -0.68616819, 87.60500336, 1210.34936523, 40.11000061, 0.00000000
1, 2.7699, 277, 0.02080411, -0.95279777, -0.30994055, -0.18038586, -0.06013701, 0.31514761, 15.36735439, -62.54026413, 42.83182144, -0.92153829, 0.35441887, -1.67985773, 0.99985582, 0.00799561, -0.00321033, 0.01463358, -0.01460336, 0.96887755, -0.68991101, 87.60500336, 1210.34936523, 40.11000061, 0.00000000
1, 2.7799, 278, 0.01499462, -0.95122707, -0.30660823, -0.07339923, 0.59881651, -0.05804879, 16.31803322, -63.99157715, 42.77472687, -0.92218536, 0.35685867, -1.67434812, 0.99985641, 0.00800110, -0.00323132, 0.01458532, -0.00878747, 0.96731710, -0.69324309, 87.60500336, 1210.34936523, 40.11000061, 0.00000000
1, 2.7899, 279, 0.01011913, -0.94900417, -0.30513790, 0.41367969, 0.65808511, -0.30438945, 16.31803322, -63.99157715, 42.77472687, -0.89641482, 0.34234208, -1.71065652, 0.99985391, 0.00777711, -0.00310384, 0.01490384, -0.00391988, 0.96497285, -0.69471538, 87.60500336, 1210.34936523, 40.11000061, 0.00000000
1, 2.7999, 280, 0.00857681, -0.95147091, -0.30480319, 1.29979944, -0.50513494, -0.10303808, 15.55017757, -63.11199188, 42.60343552, -0.88350099, 0.34173042, -1.71589732, 0.99985415, 0.00766437, -0.00309718, 0.01494996, -0.00259697, 0.96698684, -0.69505858, 87.60500336, 1210.34936523, 40.11000061, 0.00000000
1, 2.8099, 281, 0.01066446, -0.95477617, -0.30397332, 1.64991260, -1.67028320, -0.04071365, 15.25766277, -61.96853638, 42.45117950, -0.86724228, 0.33687013, -1.73203743, 0.99985325, 0.00752271, -0.00305371, 0.01509156, -0.00474625, 0.97002685, -0.69589281, 87.60500336, 1210.34936523, 40.11000061, 0.00000000
1, 2.8199, 282, 0.01262235, -0.95705885, -0.30433753, 1.25411916, -1.69225037, 0.06550540, 15.14796638, -62.32036591, 42.66053009, -0.85493398, 0.33093613, -1.74801207, 0.99985200, 0.00741569, -0.00300134, 0.01523165, -0.00681370, 0.97204810, -0.69553328, 87.60500336, 1210.34936523, 40.11000061, 0.00000000
1, 2.8299, 283, 0.01272664, -0.95886600, -0.30961075, -0.05857570, -0.84001046, -0.21139190, 15.73299980, -63.19995117, 42.86988068, -0.85567242, 0.33031124, -1.75664437, 0.99985081, 0.00742199, -0.00299655, 0.01530700, -0.00696711, 0.97376901, -0.69026160, 87.60500336, 1210.34936523, 40.11000061, 0.00000000
1, 2.8399, 284, 0.01170801, -0.95881361, -0.31002149, -0.85293651, 0.06633490, -0.40084615, 15.73299980, -63.19995117, 42.86988068, -0.84817088, 0.32623628, -1.79898262, 0.99984574, 0.00735598, -0.00296271, 0.01567687, -0.00594185, 0.97376806, -0.68985003, 87.60500336, 1210.34936523, 40.11000061, 0.00000000
1, 2.8499, 285, 0.01007766, -0.96101665, -0.30710131, -0.71304029, 0.32331920, -0.30797985, 15.84269142, -63.19995117, 42.98407745, -0.85527486, 0.33017600, -1.79681468, 0.99984545, 0.00741748, -0.00299792, 0.01565751, -0.00434035, 0.97590768, -0.69277143, 87.60500336, 1210.34936523, 40.11000061, 0.00000000
1, 2.8599, 286, 0.00890150, -0.96289128, -0.30725068, -0.15787297, 0.37885231, -0.29093274, 15.65986919, -63.85964203, 42.96504593, -0.85680449, 0.33412614, -1.79411507, 0.99984568, 0.00743036, -0.00303242, 0.01563366, -0.00309724, 0.97784436, -0.69262064, 87.60500336, 1210.34936523, 40.11000061, 0.00000000
1, 2.8699, 287, 0.00819523, -0.96324164, -0.31089160, 0.47181723, 0.07416670, -0.24653023, 15.51361179, -63.50780487, 42.45117950, -0.85209495, 0.33670235, -1.79422367, 0.99984586, 0.00738891, -0.00305426, 0.01563456, -0.00233410, 0.97815210, -0.68898010, 87.60500336, 1210.34936523, 40.11000061, 0.00000000
1, 2.8799, 288, 0.00807405, -0.96320724, -0.31126186, 1.12121642, -0.74839997, -0.00213619, 15.84269142, -62.58424377, 42.20376587, -0.84098047, 0.33437252, -1.80144465, 0.99984562, 0.00729206, -0.00303287, 0.01569802, -0.00221976, 0.97796082, -0.68861216, 87.60500336, 1210.34936523, 40.11000061, 0.00000000
1, 2.8899, 289, 0.01132208, -0.96032667, -0.30914426, 1.41613340, -2.00231290, 0.21669577, 15.84269142, -62.58424377, 42.20376587, -0.82733041, 0.32445982, -1.86075139, 0.99983847, 0.00717280, -0.00294822, 0.01621647, -0.00557274, 0.97485399, -0.69073379, 87.60500336, 1210.34936523, 40.11000061, 0.00000000
1, 2.8999, 290, 0.01415826, -0.95652366, -0.30397847, 1.17047930, -2.86478686, 0.37509808, 16.06208038, -62.14445114, 42.16569901, -0.81601560, 0.31192806, -1.88688970, 0.99983573, 0.00707521, -0.00283889, 0.01644561, -0.00863540, 0.97082680, -0.69590402, 87.60500336, 1210.34936523, 40.11000061, 0.00000000
1, 2.9099, 291, 0.01193296, -0.95784336, -0.30551988, 0.49911201, -2.02979279, 0.41228530, 16.50085640, -65.00309753, 42.35601807, -0.81129873, 0.30166531, -1.90492487, 0.99983364, 0.00703509, -0.00274978, 0.01660372, -0.00660478, 0.97203231, -0.69436532, 87.60500336, 1210.34936523, 40.11000061, 0.00000000
1, 2.9199, 292, 0.01048382, -0.95864946, -0.31194133, 0.14007179, -1.53030503, 0.12505391, 15.69643497, -63.63974380, 42.90795135, -0.81011033, 0.29569098, -1.91908491, 0.99983186, 0.00702526, -0.00269835, 0.01672767, -0.00529064, 0.97279525, -0.68794513, 87.60500336, 1210.34936523, 40.11000061, 0.00000000
1, 2.9299, 293, 0.00971559, -0.96156967, -0.30717078, -0.54107428, -1.24061537, -0.07771125, 15.76956558, -64.65126801, 42.64150238, -0.81570077, 0.29255098, -1.93106115, 0.99982971, 0.00707422, -0.00267251, 0.01683223, -0.00459509, 0.97575700, -0.69271541, 87.60500336, 1210.34936523, 40.11000061, 0.00000000
1, 2.9399, 294, 0.01000204, -0.96478325, -0.30214468, -1.22144389, -0.79397154, -0.43538377, 15.87925720, -64.65126801, 42.64150238, -0.81133097, 0.28832614, -1.98046160, 0.99982280, 0.00703558, -0.00263804, 0.01726362, -0.00491466, 0.97906822, -0.69774038, 87.60500336, 1210.34936523, 40.11000061, 0.00000000
1, 2.9499, 295, 0.00963604, -0.96518677, -0.30202851, -1.27875161, -0.13972279, -0.59723675, 15.87925720, -64.51932526, 42.64150238, -0.82416421, 0.29356340, -1.98354614, 0.99982136, 0.00714668, -0.00268586, 0.01728991, -0.00455104, 0.97949523, -0.69785625, 87.60500336, 1210.34936523, 40.11000061, 0.00000000
1, 2.9599, 296, 0.01241705, -0.96219289, -0.29979208, -1.17783868, 0.21731785, -0.34394282, 15.76956558, -63.37586975, 42.60343552, -0.83594221, 0.29751742, -1.98245049, 0.99982071, 0.00724888, -0.00272206, 0.01727982, -0.00724505, 0.97670197, -0.70008928, 87.60500336, 1210.34936523, 40.11000061, 0.00000000
1, 2.9699, 297, 0.01428416, -0.96415925, -0.30098575, -1.39031339, -0.70005798, 0.04172171, 15.69643497, -62.54026413, 42.69859695, -0.84993160, 0.29492453, -1.98884296, 0.99981892, 0.00737118, -0.00270196, 0.01733543, -0.00910763, 0.97890329, -0.69889212, 87.60500336, 1210.34936523, 40.11000061, 0.00000000
1, 2.9799, 298, 0.01796782, -0.96819210, -0.30088213, -0.79147112, -2.28206658, 0.53397870, 15.25766277, -62.67220306, 42.73666000, -0.85812449, 0.28269419, -2.00876665, 0.99981564, 0.00744406, -0.00259779, 0.01750988, -0.01293732, 0.98312980, -0.69899356, 87.60500336, 1210.34936523, 40.11000061, 0.00000000
1, 2.9899, 299, 0.01747755, -0.96516752, -0.29978889, 0.28167439, -2.53693485, 0.89448136, 15.14796638, -62.23241043, 42.79375458, -0.83778119, 0.27472293, -2.07174754, 0.99980730, 0.00726640, -0.00252912, 0.01806036, -0.01268930, 0.98004138, -0.70008904, 87.60500336, 1210.34936523, 40.11000061, 0.00000000
1, 2.9999, 300, 0.01485434, -0.96556991, -0.29991275, -0.52458251, -1.97034740, 0.48698080, 15.14796638, -62.23241043, 42.79375458, -0.84328008, 0.26392934, -2.08887935, 0.99980444, 0.00731571, -0.00243691, 0.01821041, -0.01018969, 0.98023796, -0.69996881, 87.60500336, 1210.34936523, 40.11000061, 0.00000000
1, 3.0099, 301, 0.01005320, -0.96112072, -0.30039483, -1.20573878, -1.19522190, -0.02198816, 16.13521194, -63.06801224, 42.86988068, -0.85548431, 0.26039296, -2.10019088, 0.99980193, 0.00742252, -0.00240873, 0.01830907, -0.00549778, 0.97596884, -0.69948453, 87.60500336, 1210.34936523, 40.11000061, 0.00000000
1, 3.0199, 302, 0.00558675, -0.95453811, -0.30051950, -1.29610157, -0.60728657, -0.34333894, 15.36735439, -62.76015854, 42.58440399, -0.86853755, 0.26174930, -2.10691428, 0.99980003, 0.00753605, -0.00242309, 0.01836737, -0.00102727, 0.96961278, -0.69935644, 87.60500336, 1210.34936523, 40.11000061, 0.00000000
1, 3.0299, 303, 0.00542853, -0.95356911, -0.29826817, -1.62928021, 0.21007554, -0.11419570, 15.40392017, -63.19995117, 42.58440399, -0.88481790, 0.26349661, -2.10513115, 0.99979919, 0.00767785, -0.00244082, 0.01835135, -0.00083748, 0.96889889, -0.70160377, 87.60500336, 1210.34936523, 40.11000061, 0.00000000
1, 3.0399, 304, 0.00596878, -0.95189768, -0.29938871, -1.66938996, 0.32613847, 0.11688513, 15.36735439, -62.49628448, 42.50827408, -0.86544621, 0.24530271, -2.14350963, 0.99979460, 0.00751099, -0.00228150, 0.01868781, -0.00144133, 0.96737081, -0.70048130, 87.60500336, 1210.34936523, 40.11000061, 0.00000000
1, 3.0499, 305, 0.00980228, -0.95348930, -0.30323505, -0.36954004, -1.05769169, 0.36506727, 15.36735439, -62.49628448, 42.50827408, -0.86925066, 0.23851240, -2.15237546, 0.99979299, 0.00754512, -0.00222346, 0.01876554, -0.00558426, 0.96865398, -0.69664103, 87.60500336, 1210.34936523, 40.11000061, 0.00000000
1, 3.0599, 306, 0.01157152, -0.94947881, -0.29672563, 0.35318056, -1.94716036, 0.53751731, 14.96514320, -62.10047150, 42.29892349, -0.86595094, 0.22730333, -2.16920638, 0.99979067, 0.00751786, -0.00212622, 0.01891320, -0.00752973, 0.96460831, -0.70315182, 87.60500336, 1210.34936523, 40.11000061, 0.00000000
1, 3.0699, 307, 0.01691393, -0.94914246, -0.29961866, -1.09000432, -1.22313833, 0.69778150, 15.29422855, -63.85964203, 42.96504593, -0.87696284, 0.21683581, -2.17853093, 0.99978852, 0.00761550, -0.00203733, 0.01899505, -0.01306873, 0.96434706, -0.70025837, 87.60500336, 1210.34936523, 40.11000061, 0.00000000
1, 3.0799, 308, 0.01814020, -0.95397222, -0.30748582, -3.05536509, 0.08372308, 0.64337873, 15.14796638, -63.63974380, 43.17439651, -0.90747464, 0.21099417, -2.17542958, 0.99978709, 0.00788273, -0.00199121, 0.01896785, -0.01441954, 0.96959299, -0.69238526, 87.60500336, 1210.34936523, 40.11000061, 0.00000000
1, 3.0899, 309, 0.01759872, -0.96374631, -0.31666929, -3.17033052, 0.78499645, 0.72878712, 14.78232574, -64.56330872, 42.69859695, -0.94809973, 0.21519855, -2.20522761, 0.99977911, 0.00823595, -0.00203676, 0.01922682, -0.01392751, 0.97997808, -0.68319225, 87.60500336, 1210.34936523, 40.11000061, 0.00000000
1, 3.0999, 310, 0.02083716, -0.96827418, -0.31060499, -1.78806472, 0.27752087, 0.94240659, 14.78232574, -64.56330872, 42.69859695, -0.96590328, 0.20713143, -2.19945884, 0.99977899, 0.00839274, -0.00196894, 0.01917677, -0.01716380, 0.98503399, -0.68924785, 87.60500336, 1210.34936523, 40.11000061, 0.00000000
1, 3.1099, 311, 0.02196034, -0.96973228, -0.29804963, -0.86737418, -0.36682290, 0.90846449, 15.14796638, -61.74863815, 42.60343552, -0.97459072, 0.19735655, -2.19999504, 0.99977833, 0.00847016, -0.00188515, 0.01918203, -0.01845244, 0.98669368, -0.70180041, 87.60500336, 1210.34936523, 40.11000061, 0.00000000
1, 3.1199, 312, 0.01896708, -0.96238756, -0.29086065, -0.36143139, -0.16761258, 0.50680345, 15.22109699, -62.40832901, 42.64150238, -0.97819364, 0.19201374, -2.19995284, 0.99977815, 0.00850249, -0.00183914, 0.01918200, -0.01559277, 0.97944528, -0.70898819, 87.60500336, 1210.34936523, 40.11000061, 0.00000000
1, 3.1299, 313, 0.01946292, -0.95952266, -0.29624990, -0.69136542, 1.20838106, 0.15001883, 14.96514320, -62.45230865, 42.50827408, -0.98495728, 0.19440761, -2.18794823, 0.99977964, 0.00856130, -0.00186026, 0.01907697, -0.01609761, 0.97665977, -0.70359761, 87.60500336, 1210.34936523, 40.11000061, 0.00000000
1, 3.1399, 314, 0.01859257, -0.95772737, -0.30276948, -1.54870665, 1.39632630, -0.21255095, 15.58674240, -63.24393463, 42.94601059, -0.98932141, 0.21138705, -2.21686029, 0.99977428, 0.00859603, -0.00201129, 0.01932787, -0.01508241, 0.97501844, -0.69707483, 87.60500336, 1210.34936523, 40.11000061, 0.00000000
1, 3.1499, 315, 0.01620141, -0.95438409, -0.30437160, -2.43730021, 0.56653172, -0.26243404, 15.58674240, -63.24393463, 42.94601059, -1.01363242, 0.21566567, -2.21208978, 0.99977314, 0.00880750, -0.00205236, 0.01928549, -0.01245724, 0.97190970, -0.69546783, 87.60500336, 1210.34936523, 40.11000061, 0.00000000
1, 3.1599, 316, 0.01726298, -0.95246261, -0.30539232, -2.86769462, -1.13224423, -0.47261482, 15.62330818, -61.92455292, 43.19342804, -1.04246521, 0.21656972, -2.22406149, 0.99976879, 0.00905869, -0.00206604, 0.01938935, -0.01348601, 0.97044730, -0.69443876, 87.60500336, 1210.34936523, 40.11000061, 0.00000000
1, 3.1699, 317, 0.02683343, -0.94472098, -0.30606303, -4.25278425, -2.44482255, -0.61902010, 15.29422855, -63.72769928, 42.33699036, -1.08531106, 0.21469487, -2.24881911, 0.99976116, 0.00943238, -0.00205897, 0.01960473, -0.02306962, 0.96336627, -0.69375604, 87.60500336, 1210.34936523, 40.11000061, 0.00000000
1, 3.1799, 318, 0.03674751, -0.93818736, -0.30123112, -4.63552141, -3.87303042, -0.55998373, 15.03827477, -62.10047150, 42.24182510, -1.13216829, 0.20770328, -2.28689504, 0.99975079, 0.00984171, -0.00200926, 0.01993668, -0.03306491, 0.95764434, -0.69857281, 87.60500336, 1210.34936523, 40.11000061, 0.00000000
1, 3.1899, 319, 0.03972173, -0.93488431, -0.29317513, -4.05865145, -4.41970921, -0.43261573, 15.07484055, -62.36434555, 42.33699036, -1.16996634, 0.21747579, -2.36985087, 0.99973267, 0.01016826, -0.00210846, 0.02065888, -0.03611782, 0.95508754, -0.70661426, 87.60500336, 1210.34936523, 40.11000061, 0.00000000
1, 3.1999, 320, 0.03416076, -0.93429577, -0.29904690, -2.91522217, -3.60080004, -0.64741588, 15.07484055, -62.36434555, 42.33699036, -1.19958520, 0.21212308, -2.40577650, 0.99972355, 0.01042698, -0.00207037, 0.02097225, -0.03044231, 0.95505798, -0.70073056, 87.60500336, 1210.34936523, 40.11000061, 0.00000000
1, 3.2099, 321, 0.03098840, -0.93488961, -0.30702409, -1.56622553, -3.04791069, -1.29031730, 15.11140537, -63.99157715, 42.73666000, -1.21567214, 0.21461220, -2.43863654, 0.99971604, 0.01056627, -0.00209806, 0.02125840, -0.02726077, 0.95601022, -0.69274586, 87.60500336, 1210.34936523, 40.11000061, 0.00000000
1, 3.2199, 322, 0.03660684, -0.93376428, -0.30744693, -1.20937216, -5.14131451, -1.12448061, 15.51361179, -65.04708099, 42.47021484, -1.22844470, 0.20883392, -2.49082899, 0.99970508, 0.01067784, -0.00205488, 0.02171405, -0.03289693, 0.95512176, -0.69231820, 87.60500336, 1210.34936523, 40.11000061, 0.00000000
1, 3.2299, 323, 0.05142756, -0.94351631, -0.30350891, -1.31415033, -8.84533310, -0.27038214, 14.74575996, -63.19995117, 42.48923874, -1.24265003, 0.18310043, -2.57537842, 0.99968779, 0.01080529, -0.00184104, 0.02245384, -0.04803580, 0.96510410, -0.69625235, 87.60500336, 1210.34936523, 40.11000061, 0.00000000
1, 3.2399, 324, 0.06179392, -0.95889145, -0.29304466, -1.61571896, -11.06305122, 0.89681917, 15.18453217, -62.76015854, 41.95634842, -1.25363946, 0.16324881, -2.71502686, 0.99965894, 0.01090302, -0.00168330, 0.02367384, -0.05896063, 0.98073936, -0.70671272, 87.60500336, 1210.34936523, 40.11000061, 0.00000000
1, 3.2499, 325, 0.07094538, -0.97853696, -0.27373216, -1.48360550, -11.40473461, 1.92635131, 14.96514320, -61.44078064, 41.91828537, -1.26966751, 0.10846404, -2.81675339, 0.99963641, 0.01105309, -0.00121850, 0.02456632, -0.06867141, 1.00060368, -0.72602171, 87.60500336, 1210.34936523, 40.11000061, 0.00000000
1, 3.2599, 326, 0.05560697, -0.99932307, -0.25115699, 1.18374431, -11.13268471, 3.36533046, 14.96514320, -61.44078064, 41.91828537, -1.25883865, 0.04090779, -2.91153049, 0.99961698, 0.01097260, -0.00063593, 0.02539970, -0.05444354, 1.02141583, -0.74859816, 87.60500336, 1210.34936523, 40.11000061, 0.00000000
1, 3.2699, 327, 0.04137523, -1.00990117, -0.24298851, 4.82927704, -8.43517590, 3.85034537, 15.62330818, -61.83659363, 42.12763596, -1.21119261, -0.02257684, -2.97956061, 0.99960613, 0.01057100, -0.00007785, 0.02599927, -0.04137376, 1.03140950, -0.75678015, 87.60500336, 1210.34936523, 40.11000061, 0.00000000
1, 3.2799, 328, 0.01915095, -1.01793480, -0.25316551, 6.36442089, -4.58611870, 3.20585918, 15.11140537, -63.50780487, 42.16569901, -1.14783537, -0.06760172, -3.01337790, 0.99960375, 0.01002863, 0.00032633, 0.02629822, -0.02007269, 1.03838050, -0.74662495, 87.60500336, 1210.34936523, 40.11000061, 0.00000000
1, 3.2899, 329, 0.00280093, -1.02180099, -0.26309463, 3.85987806, -2.34500670, 1.36218178, 15.00170898, -62.71617889, 42.05150604, -1.05652046, -0.09386978, -3.07350492, 0.99959737, 0.00923840, 0.00057158, 0.02682457, -0.00426710, 1.04111826, -0.73671752, 87.60500336, 1210.34936523, 40.11000061, 0.00000000
1, 3.2999, 330, 0.00278635, -1.02574968, -0.27589199, -2.45868278, -1.99620378, -0.96664429, 14.70919418, -64.60728455, 42.31795502, -1.08127594, -0.09102579, -3.09527516, 0.99959028, 0.00945378, 0.00053918, 0.02701436, -0.00441857, 1.04436910, -0.72393334, 87.60500336, 1210.34936523, 40.11000061, 0.00000000
1, 3.3099, 331, 0.01671181, -1.02165031, -0.28334108, -7.68451452, -3.07911873, -2.30937266, 14.70919418, -64.60728455, 42.31795502, -1.15839338, -0.07890693, -3.13109899, 0.99957526, 0.01012375, 0.00041212, 0.02732614, -0.01816876, 1.04131985, -0.71646422, 87.60500336, 1210.34936523, 40.11000061, 0.00000000
1, 3.3199, 332, 0.02566530, -1.00855911, -0.27961108, -9.23360634, -4.24002123, -2.36419559, 14.96514320, -61.88057327, 41.67086411, -1.25110877, -0.07003147, -3.17798281, 0.99955559, 0.01093051, 0.00030812, 0.02773458, -0.02693774, 1.02977896, -0.72016287, 87.60500336, 1210.34936523, 40.11000061, 0.00000000
1, 3.3299, 333, 0.03096087, -0.99815392, -0.28110936, -9.27768326, -4.14598274, -1.83473444, 14.67262936, -61.74863815, 41.95634842, -1.34424126, -0.06594101, -3.22227764, 0.99953550, 0.01174198, 0.00024536, 0.02812077, -0.03212665, 1.02100325, -0.71862876, 87.60500336, 1210.34936523, 40.11000061, 0.00000000
1, 3.3399, 334, 0.03530975, -0.98783827, -0.28757235, -9.63445282, -4.37569284, -0.53767723, 14.81888676, -63.33188629, 41.78505707, -1.43367219, -0.06228375, -3.30107570, 0.99950653, 0.01252128, 0.00018291, 0.02880787, -0.03648452, 1.01231778, -0.71212721, 87.60500336, 1210.34936523, 40.11000061, 0.00000000
1, 3.3499, 335, 0.04415108, -0.97982126, -0.28307998, -9.44978523, -5.06516838, 0.80079198, 14.96514320, -63.19995117, 41.55667496, -1.52852595, -0.08625200, -3.34552646, 0.99948436, 0.01335479, 0.00036294, 0.02919850, -0.04547781, 1.00587714, -0.71657956, 87.60500336, 1210.34936523, 40.11000061, 0.00000000
1, 3.3599, 336, 0.05392509, -0.97429323, -0.27447224, -9.27819920, -6.52923822, 2.28122115, 14.96514320, -63.19995117, 41.55667496, -1.62171435, -0.12905642, -3.39898396, 0.99945891, 0.01417881, 0.00070592, 0.02967031, -0.05587212, 1.00198650, -0.72514212, 87.60500336, 1210.34936523, 40.11000061, 0.00000000
1, 3.3699, 337, 0.05472677, -0.95112336, -0.26977441, -9.61379433, -6.98036194, 3.48566699, 14.81888676, -62.89209366, 41.63280487, -1.71821749, -0.18479751, -3.45265675, 0.99943173, 0.01503546, 0.00116005, 0.03014629, -0.05757954, 0.98046434, -0.72979081, 87.60500336, 1210.34936523, 40.11000061, 0.00000000
1, 3.3799, 338, 0.04449061, -0.92242593, -0.25838846, -10.15909863, -3.58522630, 4.43762970, 14.78232574, -61.61669922, 41.67086411, -1.81992006, -0.23845924, -3.47099543, 0.99941212, 0.01593682, 0.00159876, 0.03031466, -0.04832150, 0.95351321, -0.74112070, 87.60500336, 1210.34936523, 40.11000061, 0.00000000
1, 3.3899, 339, 0.02125011, -0.89809835, -0.25274497, -10.35774803, 2.60723209, 4.48053503, 14.38011456, -62.80414200, 41.49957657, -1.91666484, -0.26827455, -3.46505761, 0.99939913, 0.01678835, 0.00183407, 0.03026854, -0.02579502, 0.93095613, -0.74670458, 87.60500336, 1210.34936523, 40.11000061, 0.00000000
1, 3.3999, 340, -0.00570530, -0.88790214, -0.25352013, -11.43723679, 8.22178078, 3.75811768, 15.29422855, -64.07953644, 41.48054886, -2.03063393, -0.27637780, -3.37398267, 0.99940544, 0.01778295, 0.00188877, 0.02947730, 0.00089947, 0.92256451, -0.74586725, 87.60500336, 1210.34936523, 40.11000061, 0.00000000
1, 3.4099, 341, -0.01689377, -0.88746625, -0.27062339, -13.74299335, 12.59134102, 3.03085709, 15.29422855, -64.07953644, 41.48054886, -2.16750073, -0.26281968, -3.24391818, 0.99941665, 0.01897115, 0.00175685, 0.02834296, 0.01219979, 0.92437053, -0.72868419, 87.60500336, 1210.34936523, 40.11000061, 0.00000000
1, 3.4199, 342, -0.00974196, -0.89771819, -0.28104928, -13.92541122, 13.52248764, 2.66426873, 14.85545158, -62.27638626, 41.80408859, -2.30608392, -0.24237020, -3.10632968, 0.99942684, 0.02017289, 0.00156845, 0.02714151, 0.00538032, 0.93705887, -0.71816683, 87.60500336, 1210.34936523, 40.11000061, 0.00000000
1, 3.4299, 343, -0.00298501, -0.92226225, -0.28041300, -11.27445889, 11.41106701, 2.92817712, 14.52637196, -62.05649185, 41.97537994, -2.41821623, -0.23125982, -2.98800826, 0.99943435, 0.02114674, 0.00146683, 0.02610904, -0.00110696, 0.96376699, -0.71871686, 87.60500336, 1210.34936523, 40.11000061, 0.00000000
1, 3.4399, 344, 0.00810643, -0.94104713, -0.28338030, -8.16327477, 9.01883125, 3.80001354, 14.41668034, -62.18843079, 42.03247452, -2.49172258, -0.23198913, -2.92504764, 0.99943477, 0.02178719, 0.00146841, 0.02556099, -0.01215903, 0.98412091, -0.71568334, 87.60500336, 1210.34936523, 40.11000061, 0.00000000
1, 3.4499, 345, 0.01764233, -0.94867301, -0.28788453, -6.43048191, 6.60118675, 4.51732922, 15.03827477, -64.95912170, 41.55667496, -2.55563951, -0.25190884, -2.84699154, 0.99943918, 0.02234797, 0.00164311, 0.02488489, -0.02189361, 0.99286139, -0.71112961, 87.60500336, 1210.34936523, 40.11000061, 0.00000000
1, 3.4599, 346, 0.01835161, -0.94243318, -0.28460136, -5.34042215, 5.13534927, 4.43044186, 15.03827477, -64.95912170, 41.55667496, -2.60875201, -0.27595171, -2.78308749, 0.99944186, 0.02281537, 0.00185399, 0.02433306, -0.02300742, 0.98761743, -0.71436644, 87.60500336, 1210.34936523, 40.11000061, 0.00000000
1, 3.4699, 347, 0.01206930, -0.91482502, -0.27394924, -4.37545109, 4.53590822, 3.76448870, 14.96514320, -63.06801224, 41.80408859, -2.65228915, -0.29574057, -2.72716498, 0.99944437, 0.02319828, 0.00202866, 0.02385001, -0.01710951, 0.96083140, -0.72497916, 87.60500336, 1210.34936523, 40.11000061, 0.00000000
1, 3.4799, 348, 0.00333004, -0.85719359, -0.25932419, -3.92325068, 4.61710596, 2.14760780, 14.48980618, -62.36434555, 41.42345047, -2.69131303, -0.30003232, -2.67606211, 0.99944681, 0.02353861, 0.00206847, 0.02340587, -0.00857417, 0.90389431, -0.73957092, 87.60500336, 1210.34936523, 40.11000061, 0.00000000
1, 3.4899, 349, -0.01817266, -0.78777432, -0.25413844, -3.52724910, 6.81391621, -1.92074299, 14.45324135, -61.79261780, 41.25216293, -2.73137355, -0.26280576, -2.65503836, 0.99944371, 0.02388012, 0.00173998, 0.02321550, 0.01328740, 0.83513427, -0.74472749, 87.60500336, 1210.34936523, 40.11000061, 0.00000000
1, 3.4999, 350, -0.04054998, -0.73781449, -0.28470081, -6.66400433, 10.26940823, -8.06121922, 14.81888676, -62.62821960, 41.95634842, -2.79759383, -0.15168269, -2.58585501, 0.99944586, 0.02443480, 0.00077214, 0.02258948, 0.03707106, 0.78609216, -0.71412683, 87.60500336, 1210.34936523, 40.11000061, 0.00000000
1, 3.5099, 351, -0.05675820, -0.72683561, -0.32790571, -16.64952660, 12.73993683, -14.95731258, 14.81888676, -62.62821960, 41.93731308, -2.96345878, 0.03286142, -2.51672578, 0.99942470, 0.02584563, -0.00085447, 0.02194604, 0.05602572, 0.77726889, -0.67082065, 87.60500336, 1210.34936523, 40.11000061, 0.00000000
1, 3.5199, 352, -0.08334449, -0.78321415, -0.35053822, -31.19684601, 11.81021500, -21.77030563, 14.48980618, -62.98005676, 41.93731308, -3.27488589, 0.27829552, -2.47963428, 0.99935627, 0.02851557, -0.00304530, 0.02155892, 0.08652084, 0.83811986, -0.64794624, 87.60500336, 1210.34936523, 40.11000061, 0.00000000
1, 3.5299, 353, -0.11194085, -0.87866259, -0.37005743, -35.14608383, 9.80265427, -27.91767883, 14.92858315, -62.18843079, 42.01344299, -3.62629676, 0.57425839, -2.48434162, 0.99925536, 0.03152370, -0.00569354, 0.02150862, 0.11996223, 0.93972766, -0.62804163, 87.60500336, 1210.34936523, 40.11000061, 0.00000000
1, 3.5399, 354, -0.08578156, -0.97765213, -0.35122034, -14.70421410, 5.80683947, -33.05647659, 14.89201736, -59.72559738, 41.78505707, -3.77584171, 0.89463377, -2.57808113, 0.99917966, 0.03275959, -0.00854196, 0.02222607, 0.09933895, 1.04290152, -0.64655519, 87.60500336, 1210.34936523, 40.11000061, 0.00000000
1, 3.5499, 355, -0.01866574, -1.10055506, -0.24943255, 12.46090794, -2.98084784, -38.93183136, 14.70919418, -60.12141037, 41.67086411, -3.65578961, 1.24689031, -2.74755883, 0.99915302, 0.03162557, -0.01163697, 0.02361408, 0.03804966, 1.16544187, -0.74826998, 87.60500336, 1210.34936523, 40.11000061, 0.00000000
1, 3.5599, 356, 0.02960391, -1.19111156, -0.12408083, 27.72785378, -5.94369650, -47.82999039, 16.09864616, -59.50569916, 41.80408859, -3.38617301, 1.67216730, -2.97665048, 0.99913108, 0.02915368, -0.01534791, 0.02552816, -0.00331684, 1.25198233, -0.87371540, 87.60500336, 1210.34936523, 40.11000061, 0.00000000
1, 3.5699, 357, 0.03044816, -1.19267142, -0.13675939, 25.51862526, 3.95419145, -48.68741608, 16.09864616, -59.50569916, 41.80408859, -3.13644195, 2.14145088, -3.11398053, 0.99909580, 0.02684476, -0.01941616, 0.02664512, 0.00383920, 1.24885726, -0.86106873, 87.60500336, 1210.34936523, 40.11000061, 0.00000000
1, 3.5799, 358, 0.02767915, -1.13417387, -0.19618411, 23.09197807, 16.41866493, -40.71863937, 16.06208038, -59.46171951, 42.45117950, -2.90478778, 2.58019781, -3.10451603, 0.99907410, 0.02472091, -0.02318550, 0.02650267, 0.01459110, 1.18636370, -0.80155516, 87.60500336, 1210.34936523, 40.11000061, 0.00000000
1, 3.5899, 359, 0.03403170, -1.08170998, -0.19980003, 18.41499329, 19.97580338, -31.62944794, 16.39115906, -57.65857315, 42.37504959, -2.70965481, 2.94577694, -3.05449080, 0.99905139, 0.02294290, -0.02631756, 0.02602852, 0.01507963, 1.13004529, -0.79782116, 87.60500336, 1210.34936523, 40.11000061, 0.00000000
1, 3.5999, 360, 0.05350050, -1.13451612, -0.21861164, 7.72525454, 14.23947716, -22.69966888, 16.64711380, -56.99888611, 42.37504959, -2.62883830, 3.20784259, -2.99935055, 0.99901974, 0.02218974, -0.02857320, 0.02551230, 0.00089111, 1.18069649, -0.77883875, 87.60500336, 1210.34936523, 40.11000061, 0.00000000
1, 3.6099, 361, 0.07389560, -1.19081247, -0.17248596, -8.62422371, 11.87829304, -15.10545444, 17.12245178, -58.40621948, 42.31795502, -2.71091461, 3.39055443, -2.93875313, 0.99897200, 0.02287845, -0.03017215, 0.02492467, -0.01582254, 1.23733246, -0.82474142, 87.60500336, 1210.34936523, 40.11000061, 0.00000000
1, 3.6199, 362, 0.03323739, -1.21222961, -0.18828322, -16.48670197, 19.19991684, -3.71250653, 17.12245178, -58.40621948, 42.31795502, -2.86400747, 3.49179268, -2.76956224, 0.99895024, 0.02423562, -0.03105216, 0.02338670, 0.02708404, 1.26101279, -0.80870265, 87.60500336, 1210.34936523, 40.11000061, 0.00000000
1, 3.6299, 363, -0.00486691, -1.17314196, -0.18715768, -23.07102203, 20.19688416, 3.60601997, 16.72023964, -55.98736191, 42.29892349, -3.08028841, 3.52848530, -2.56517053, 0.99893308, 0.02616900, -0.03136946, 0.02153750, 0.06625728, 1.22532105, -0.80959082, 87.60500336, 1210.34936523, 40.11000061, 0.00000000
1, 3.6399, 364, -0.03323232, -1.08381808, -0.17248902, -23.47048569, 18.84180832, 8.67646217, 17.15901566, -55.54756927, 42.12763596, -3.28453851, 3.50239682, -2.38507915, 0.99892426, 0.02800373, -0.03113642, 0.01991835, 0.09462278, 1.13981009, -0.82405257, 87.60500336, 1210.34936523, 40.11000061, 0.00000000
1, 3.6499, 365, -0.04864582, -1.00511539, -0.17633918, -21.51192284, 17.29410934, 11.94265366, 17.08588600, -56.25123596, 42.64150238, -3.48527122, 3.45230985, -2.17863822, 0.99892080, 0.02981834, -0.03068101, 0.01807778, 0.10923949, 1.06449270, -0.82005519, 87.60500336, 1210.34936523, 40.11000061, 0.00000000
1, 3.6599, 366, -0.03713533, -0.94904673, -0.18541124, -21.87195587, 14.92433071, 16.11272812, 16.90306282, -57.65857315, 42.92698288, -3.69035935, 3.35552144, -1.97917259, 0.99892026, 0.03167489, -0.02981457, 0.01631173, 0.09637748, 1.01195800, -0.81084740, 87.60500336, 1210.34936523, 40.11000061, 0.00000000
1, 3.6699, 367, -0.00274489, -0.94237578, -0.18403396, -19.89599800, 11.90245342, 20.34983444, 16.90306282, -57.65857315, 42.92698288, -3.87700033, 3.20899415, -1.79245615, 0.99892849, 0.03337163, -0.02850953, 0.01467937, 0.05972742, 1.00871813, -0.81213391, 87.60500336, 1210.34936523, 40.11000061, 0.00000000
1, 3.6799, 368, 0.01400764, -0.95180374, -0.16767284, -16.28820229, 14.08726406, 23.86523247, 16.90306282, -57.92244339, 42.69859695, -4.02600193, 3.03821898, -1.57247603, 0.99895036, 0.03474705, -0.02697333, 0.01277760, 0.04013326, 1.02095973, -0.82846218, 87.60500336, 1210.34936523, 40.11000061, 0.00000000
1, 3.6899, 369, 0.00815816, -0.94073790, -0.15541156, -13.37181187, 16.79607391, 26.47969055, 16.64711380, -56.77898788, 43.19342804, -4.12880278, 2.84951639, -1.34671795, 0.99898362, 0.03571716, -0.02526951, 0.01084519, 0.04283191, 1.01213109, -0.84073198, 87.60500336, 1210.34936523, 40.11000061, 0.00000000
1, 3.6999, 370, -0.01155510, -0.92029393, -0.12791178, -7.98289108, 19.50456810, 29.24478531, 16.13521194, -57.87847137, 42.60343552, -4.19219685, 2.64939904, -1.05669856, 0.99902916, 0.03635128, -0.02343904, 0.00836714, 0.05909167, 0.99297845, -0.86830920, 87.60500336, 1210.34936523, 40.11000061, 0.00000000
1, 3.7099, 371, -0.03922195, -0.90761578, -0.10058533, -3.77921772, 23.52304268, 30.01953888, 16.28146744, -57.92244339, 42.52730942, -4.21241379, 2.45705938, -0.72671843, 0.99907970, 0.03660689, -0.02165834, 0.00554807, 0.08331729, 0.98093039, -0.89574784, 87.60500336, 1210.34936523, 40.11000061, 0.00000000
1, 3.7199, 372, -0.07163344, -0.90807939, -0.09143521, -2.92195272, 29.89475632, 30.09813690, 16.28146744, -57.92244339, 42.52730942, -4.22207165, 2.28754950, -0.33727568, 0.99912012, 0.03676997, -0.02005607, 0.00220540, 0.11262424, 0.98155755, -0.90501851, 87.60500336, 1210.34936523, 40.11000061, 0.00000000
1, 3.7299, 373, -0.09788226, -0.90528715, -0.09970170, -3.94361091, 33.93679047, 30.08077049, 16.50085640, -58.09836197, 43.06019974, -4.24123001, 2.13322210, 0.08980515, 0.99914122, 0.03701141, -0.01857304, -0.00147183, 0.13609774, 0.97905958, -0.89684069, 87.60500336, 1210.34936523, 40.11000061, 0.00000000
1, 3.7399, 374, -0.11359808, -0.90415853, -0.09884990, -3.99016905, 37.75173187, 29.72166443, 15.87925720, -60.12141037, 43.45987701, -4.24516535, 1.98411262, 0.52553642, 0.99915063, 0.03711098, -0.01713188, -0.00522357, 0.14924957, 0.97820616, -0.89776707, 87.60500336, 1210.34936523, 40.11000061, 0.00000000
1, 3.7499, 375, -0.11908759, -0.90234369, -0.09720458, -3.31516981, 41.61204910, 29.02730751, 16.39115906, -59.32978439, 43.26955795, -4.25724459, 1.86807084, 1.02001262, 0.99913222, 0.03728151, -0.01595880, -0.00949930, 0.15241465, 0.97647768, -0.89948648, 87.60500336, 1210.34936523, 40.11000061, 0.00000000
1, 3.7599, 376, -0.10722911, -0.91333812, -0.08472343, -1.70608771, 44.75715637, 27.38341141, 16.42772484, -61.26486588, 43.49793625, -4.25316143, 1.77894104, 1.53747916, 0.99909317, 0.03730762, -0.01501368, -0.01398176, 0.13881660, 0.98749721, -0.91202253, 87.60500336, 1210.34936523, 40.11000061, 0.00000000
1, 3.7699, 377, -0.08324356, -0.93069667, -0.06717096, -2.42171931, 45.29462433, 25.63907051, 16.42772484, -61.26486588, 43.49793625, -4.25698328, 1.70800042, 2.05353189, 0.99902868, 0.03739744, -0.01422642, -0.01845860, 0.11350438, 1.00485432, -0.92961621, 87.60500336, 1210.34936523, 40.11000061, 0.00000000
1, 3.7799, 378, -0.06492696, -0.93006265, -0.07505845, -1.40716827, 45.66523361, 23.37615585, 15.91582298, -59.54967499, 43.49793625, -4.25139713, 1.65946496, 2.56456780, 0.99894482, 0.03740258, -0.01363750, -0.02289745, 0.09416202, 1.00422502, -0.92175913, 87.60500336, 1210.34936523, 40.11000061, 0.00000000
1, 3.7899, 379, -0.02886066, -0.92914248, -0.07084263, 1.52574790, 46.08519745, 21.10840988, 15.84269142, -60.73711777, 43.99277496, -4.19678307, 1.63056004, 3.04299784, 0.99886209, 0.03697658, -0.01324216, -0.02705236, 0.05749901, 1.00282800, -0.92602754, 87.60500336, 1210.34936523, 40.11000061, 0.00000000
1, 3.7999, 380, 0.01134491, -0.92135131, -0.04570210, 3.72054839, 43.58696365, 19.60774803, 15.58674240, -61.26486588, 44.69695663, -4.14170265, 1.60860527, 3.52026772, 0.99876142, 0.03654556, -0.01291168, -0.03119921, 0.01689132, 0.99388111, -0.95126432, 87.60500336, 1210.34936523, 40.11000061, 0.00000000
1, 3.8099, 381, 0.03778913, -0.90274310, -0.02731109, 2.58997345, 39.11513519, 18.63827896, 15.29422855, -62.36434555, 44.98244095, -4.09982777, 1.57884157, 3.95244050, 0.99865395, 0.03622025, -0.01252714, -0.03495190, -0.01003008, 0.97444201, -0.96972889, 87.60500336, 1210.34936523, 40.11000061, 0.00000000
1, 3.8199, 382, 0.05353371, -0.89656955, -0.02324880, -0.53888404, 37.11125183, 17.95532608, 15.65986919, -62.40832901, 45.22985458, -4.09023380, 1.54790771, 4.36372662, 0.99852914, 0.03617124, -0.01213073, -0.03852545, -0.02632256, 0.96789014, -0.97383344, 87.60500336, 1210.34936523, 40.11000061, 0.00000000
1, 3.8299, 383, 0.06009553, -0.89362770, -0.03970946, -0.84137225, 35.52401733, 16.21778488, 15.65986919, -62.40832901, 45.22985458, -4.08461332, 1.52729535, 4.75389481, 0.99839658, 0.03615599, -0.01182996, -0.04191818, -0.03333908, 0.96491897, -0.95738709, 87.60500336, 1210.34936523, 40.11000061, 0.00000000
1, 3.8399, 384, 0.06641442, -0.94242054, -0.06632804, 1.31832242, 33.09946060, 13.33009529, 15.36735439, -61.48476028, 45.38210678, -4.02562428, 1.53022802, 5.07685184, 0.99829262, 0.03567642, -0.01177659, -0.04472666, -0.03977002, 1.01318085, -0.93080938, 87.60500336, 1210.34936523, 40.11000061, 0.00000000
1, 3.8499, 385, 0.04291731, -1.01479220, -0.09867196, 0.26012573, 30.74041367, 12.26419449, 15.65986919, -61.22089005, 45.68662262, -4.01114273, 1.52843916, 5.40788841, 0.99816394, 0.03558342, -0.01166391, -0.04760836, -0.01622689, 1.08480203, -0.89851725, 87.60500336, 1210.34936523, 40.11000061, 0.00000000
