SensorId, TimeStamp (s), FrameNumber, AccX (g), AccY (g), AccZ (g), GyroX (deg/s), GyroY (deg/s), GyroZ (deg/s), MagX (uT), MagY (uT), MagZ (uT), EulerX (deg), EulerY (deg), EulerZ (deg), QuatW, QuatX, QuatY, QuatZ, LinAccX (g), LinAccY (g), LinAccZ (g), Pressure (kPa), Altitude (m), Temperature (degC), HeaveMotion (m)
1, 0.0000, 0, 0.01079833, -0.94226164, -0.35018864, -2.05707788, 1.30419660, 1.62180269, 12.84440613, -65.35493469, 45.03953552, 0.20945750, 2.85121393, 1.45506191, 0.99960881, -0.00151125, -0.02490012, -0.01264804, 0.03901753, 0.93847179, -0.64856255, 87.58900452, 1211.84777832, 39.29000092, 0.00000000
1, 0.0100, 1, 0.01092679, -0.93649757, -0.35414585, -1.87424850, 1.43111730, 1.28992391, 13.06379032, -64.95912170, 44.92533875, 0.17662284, 2.86601448, 1.42828286, 0.99960893, -0.00122903, -0.02502531, -0.01242134, 0.03883110, 0.93312478, -0.64460975, 87.58900452, 1211.84777832, 39.29000092, 0.00000000
1, 0.0200, 2, 0.00933912, -0.93333751, -0.35890964, -1.43923473, 1.59603238, 0.85260218, 13.68538952, -64.95912170, 45.51533127, 0.16219823, 2.86357498, 1.44547796, 0.99960768, -0.00109971, -0.02500263, -0.01257452, 0.04063126, 0.93042141, -0.63983685, 87.58900452, 1211.84777832, 39.29000092, 0.00000000
1, 0.0300, 3, 0.00833580, -0.93193316, -0.35998741, -1.06931400, 1.00537622, 0.41717300, 13.68538952, -66.63032532, 45.51533127, 0.15148729, 2.86315727, 1.45582438, 0.99960673, -0.00100407, -0.02499790, -0.01266712, 0.04160879, 0.92922193, -0.63876092, 87.58900452, 1211.84777832, 39.29000092, 0.00000000
1, 0.0400, 4, 0.00969625, -0.93169534, -0.36027852, -0.96408290, 0.15761067, -0.16347803, 13.83164692, -66.23451233, 45.70565414, 0.14181857, 2.86524129, 1.45624542, 0.99960643, -0.00091940, -0.02501502, -0.01267287, 0.04027845, 0.92916608, -0.63846874, 87.58900452, 1211.84777832, 39.29000092, 0.00000000
1, 0.0500, 5, 0.01138184, -0.93296129, -0.35962304, -0.75902760, -0.45576259, -0.33520570, 13.21005249, -65.57482910, 45.02050018, 0.13420990, 2.86679101, 1.45042324, 0.99960673, -0.00085413, -0.02502766, -0.01262373, 0.03862268, 0.93057913, -0.63912308, 87.58900452, 1211.84777832, 39.29000092, 0.00000000
1, 0.0600, 6, 0.01548808, -0.93562192, -0.35716656, -0.24066101, -0.29759428, -0.31588823, 13.35630894, -65.17901611, 44.56372833, 0.06700077, 3.00628829, 1.40092003, 0.99958122, -0.00026376, -0.02623698, -0.01220548, 0.03514552, 0.93360472, -0.64154804, 87.58900452, 1211.84777832, 39.29000092, 0.00000000
1, 0.0700, 7, 0.01535345, -0.93869835, -0.35746700, 0.41509059, 0.09725346, -0.01076231, 12.91753292, -65.35493469, 45.02050018, 0.07116532, 3.00673628, 1.40199304, 0.99958098, -0.00029980, -0.02624133, -0.01221388, 0.03709967, 0.93749136, -0.64115560, 87.58900452, 1211.84777832, 39.29000092, 0.00000000
1, 0.0800, 8, 0.01474391, -0.94108015, -0.35779843, 0.31525850, 0.37926412, 0.54039967, 12.91753292, -65.35493469, 45.02050018, 0.07431526, 3.00299478, 1.40759313, 0.99958128, -0.00032639, -0.02620905, -0.01226204, 0.03767654, 0.93979627, -0.64082587, 87.58900452, 1211.84777832, 39.29000092, 0.00000000
1, 0.0900, 9, 0.01269324, -0.94188434, -0.35899580, -0.44566530, 0.50284058, 1.01994026, 13.35630894, -66.58635712, 45.62952805, 0.06988059, 2.99519920, 1.41565239, 0.99958217, -0.00028671, -0.02614059, -0.01233342, 0.03962016, 0.94063056, -0.63963419, 87.58900452, 1211.84777832, 39.29000092, 0.00000000
1, 0.1000, 10, 0.01739100, -0.94094664, -0.35998389, -0.84332848, 0.44398898, 1.28359437, 14.05103493, -66.45441437, 45.28695297, 0.06144794, 2.98472977, 1.42386520, 0.99958366, -0.00021241, -0.02604837, -0.01240706, 0.03474648, 0.93982089, -0.63865536, 87.58900452, 1211.84777832, 39.29000092, 0.00000000
1, 0.1100, 11, 0.01701023, -0.94081789, -0.36275628, -0.89768338, 0.72030365, 1.14894342, 14.08759975, -66.19053650, 45.11566162, 0.02599931, 3.01001477, 1.38963079, 0.99958158, 0.00009170, -0.02626512, -0.01211637, 0.03510854, 0.93996704, -0.63588423, 87.58900452, 1211.84777832, 39.29000092, 0.00000000
1, 0.1200, 12, 0.01527368, -0.93610150, -0.36381835, -0.06370220, 0.72022480, 0.49599257, 13.72195435, -64.78320312, 45.30598068, 0.02537417, 3.00790024, 1.39807224, 0.99958122, 0.00009887, -0.02624661, -0.01219016, 0.03720106, 0.93566722, -0.63480383, 87.58900452, 1211.84777832, 39.29000092, 0.00000000
1, 0.1300, 13, 0.01603968, -0.93434191, -0.36253583, 0.99296963, 0.19325027, -0.36207846, 13.72195435, -64.78320312, 45.30598068, 0.03531832, 3.01197124, 1.39911485, 0.99958014, 0.00001280, -0.02628317, -0.01219696, 0.03647177, 0.93380862, -0.63608432, 87.58900452, 1211.84777832, 39.29000092, 0.00000000
1, 0.1400, 14, 0.01427168, -0.93120110, -0.36425567, 2.20480180, -0.07975128, -0.93403190, 13.28317833, -65.13504028, 45.22985458, 0.05739564, 3.02043223, 1.39621413, 0.99957848, -0.00017955, -0.02635932, -0.01216653, 0.03836347, 0.93035644, -0.63435781, 87.58900452, 1211.84777832, 39.29000092, 0.00000000
1, 0.1500, 15, 0.01280106, -0.92443275, -0.36763850, 3.26723719, -0.23953994, -1.15158188, 13.50256634, -66.71829224, 45.40114212, 0.09009829, 3.03038549, 1.39158678, 0.99957663, -0.00046482, -0.02644960, -0.01211855, 0.03999346, 0.92309594, -0.63096595, 87.58900452, 1211.84777832, 39.29000092, 0.00000000
1, 0.1600, 16, 0.01253480, -0.92101926, -0.37177068, 4.76283789, -0.46198431, -1.52997923, 14.01446915, -65.70676422, 45.38210678, 0.11759985, 3.05140615, 1.34087610, 0.99957681, -0.00071427, -0.02663555, -0.01166960, 0.04050239, 0.91902971, -0.62681985, 87.58900452, 1211.84777832, 39.29000092, 0.00000000
1, 0.1700, 17, 0.01211931, -0.93080419, -0.37027621, 3.73568916, -0.07720893, -1.41327703, 14.16072655, -65.97064209, 45.40114212, 0.15498954, 3.06437492, 1.33710420, 0.99957395, -0.00103997, -0.02675245, -0.01162782, 0.04126019, 0.92831135, -0.62829494, 87.58900452, 1211.84777832, 39.29000092, 0.00000000
1, 0.1800, 18, 0.01415177, -0.93148297, -0.36782813, 1.97042477, 0.00361052, -0.89640540, 14.16072655, -65.97064209, 45.40114212, 0.17470665, 3.07279420, 1.33501339, 0.99957198, -0.00121159, -0.02682787, -0.01160484, 0.03940768, 0.92855108, -0.63073218, 87.58900452, 1211.84777832, 39.29000092, 0.00000000
1, 0.1900, 19, 0.01315474, -0.93576711, -0.37365422, 1.83024561, 0.15867977, 0.05651219, 13.83164692, -65.48686981, 45.22985458, 0.19305161, 3.07281256, 1.33761704, 0.99957156, -0.00137100, -0.02682992, -0.01162326, 0.04045840, 0.93253446, -0.62490231, 87.58900452, 1211.84777832, 39.29000092, 0.00000000
1, 0.2000, 20, 0.00392081, -0.93132561, -0.36600035, 4.27812481, 0.11560650, 0.71609217, 13.50256634, -65.31095886, 44.96340561, 0.23588689, 3.06648374, 1.34335423, 0.99957192, -0.00174396, -0.02677914, -0.01166341, 0.04962408, 0.92751622, -0.63255781, 87.58900452, 1211.84777832, 39.29000092, 0.00000000
1, 0.2100, 21, 0.00871054, -0.93201542, -0.36023006, 4.83897591, -0.77570158, 0.92415541, 13.13692093, -67.11410522, 45.68662262, 0.27747896, 3.06379461, 1.30033970, 0.99957609, -0.00211708, -0.02675913, -0.01127854, 0.04470735, 0.92740935, -0.63833159, 87.58900452, 1211.84777832, 39.29000092, 0.00000000
1, 0.2200, 22, 0.01485810, -0.94407809, -0.35111117, 2.67764640, -1.09488392, 0.51975727, 13.61225796, -66.14656067, 45.64855576, 0.30426386, 3.05511785, 1.29321420, 0.99957824, -0.00235325, -0.02668593, -0.01121035, 0.03848065, 0.93889654, -0.64745188, 87.58900452, 1211.84777832, 39.29000092, 0.00000000
1, 0.2300, 23, 0.01466252, -0.95784926, -0.34988898, 0.08566360, -0.55092078, -0.41010413, 13.61225796, -66.14656067, 45.64855576, 0.30511290, 3.05706334, 1.28666914, 0.99957848, -0.00236199, -0.02670285, -0.01115301, 0.03864272, 0.95251262, -0.64867502, 87.58900452, 1211.84777832, 39.29000092, 0.00000000
1, 0.2400, 24, 0.01728125, -0.96888256, -0.35350862, -0.73183382, 0.76523101, -0.48540211, 13.57569790, -65.79473114, 45.62952805, 0.29780713, 3.06426978, 1.29179716, 0.99957639, -0.00229635, -0.02676510, -0.01119926, 0.03612429, 0.96364677, -0.64505059, 87.58900452, 1211.84777832, 39.29000092, 0.00000000
1, 0.2500, 25, 0.02058049, -0.97852534, -0.35966465, -1.24958861, 1.29757226, 0.30081958, 13.72195435, -64.56330872, 45.93403625, 0.28532732, 3.06594157, 1.30437529, 0.99957502, -0.00218439, -0.02677870, -0.01131186, 0.03290692, 0.97346294, -0.63889110, 87.58900452, 1211.84777832, 39.29000092, 0.00000000
1, 0.2600, 26, 0.03244681, -0.96902412, -0.34971330, -0.93197387, 0.06305902, 1.45164013, 13.06379032, -64.25545502, 45.32501221, 0.28470379, 3.10093784, 1.26911879, 0.99957025, -0.00218379, -0.02708324, -0.01100361, 0.02111431, 0.96411949, -0.64883912, 87.58900452, 1211.84777832, 39.29000092, 0.00000000
1, 0.2700, 27, 0.03001416, -0.95840502, -0.35264829, -1.72672582, 0.77452010, 2.69951129, 13.02722931, -66.10257721, 45.32501221, 0.26746187, 3.07829905, 1.28486860, 0.99957442, -0.00203189, -0.02688439, -0.01114559, 0.02384178, 0.95361555, -0.64588892, 87.58900452, 1211.84777832, 39.29000092, 0.00000000
1, 0.2800, 28, 0.01963850, -0.94848192, -0.35555193, -2.60466337, 1.77032483, 3.30321717, 13.02722931, -66.10257721, 45.32501221, 0.24145445, 3.05345464, 1.31162608, 0.99957800, -0.00180125, -0.02666556, -0.01138562, 0.03379101, 0.94410485, -0.64301002, 87.58900452, 1211.84777832, 39.29000092, 0.00000000
1, 0.2900, 29, 0.01388266, -0.93960321, -0.35752034, -2.68681622, 2.53762484, 3.56569648, 13.61225796, -66.54237366, 45.11566162, 0.21464047, 3.02882648, 1.34645391, 0.99958062, -0.00156178, -0.02644854, -0.01169613, 0.03911494, 0.93569136, -0.64106661, 87.58900452, 1211.84777832, 39.29000092, 0.00000000
1, 0.3000, 30, 0.00762905, -0.93379098, -0.36077768, -2.10841966, 2.73825812, 3.11110854, 13.35630894, -66.05860138, 45.68662262, 0.19360083, 3.00917482, 1.38189197, 0.99958163, -0.00137215, -0.02627540, -0.01201045, 0.04499359, 0.93028897, -0.63783067, 87.58900452, 1211.84777832, 39.29000092, 0.00000000
1, 0.3100, 31, 0.01100202, -0.92575425, -0.36471388, -1.25445437, 2.32464719, 2.57245088, 13.24661255, -65.00309753, 45.49630356, 0.15987629, 3.01028872, 1.36743343, 0.99958324, -0.00108117, -0.02628144, -0.01189205, 0.04138669, 0.92261893, -0.63390797, 87.58900452, 1211.84777832, 39.29000092, 0.00000000
1, 0.3200, 32, 0.01740707, -0.92216647, -0.36394128, -1.07785201, 1.89312267, 1.75423598, 13.17348671, -65.53085327, 45.36307526, 0.14912930, 3.00044250, 1.39075327, 0.99958324, -0.00098312, -0.02619464, -0.01209807, 0.03499042, 0.91949141, -0.63468146, 87.58900452, 1211.84777832, 39.29000092, 0.00000000
1, 0.3300, 33, 0.02124428, -0.92075980, -0.36650461, -1.35464180, 1.93749881, 1.00014865, 13.79508114, -66.58635712, 45.64855576, 0.13559869, 2.99782228, 1.41172779, 0.99958163, -0.00086058, -0.02617051, -0.01228416, 0.03106285, 0.91830468, -0.63212341, 87.58900452, 1211.84777832, 39.29000092, 0.00000000
1, 0.3400, 34, 0.01756602, -0.91851056, -0.36757478, -2.11240005, 1.30567980, 0.44425657, 13.79508114, -66.58635712, 45.64855576, 0.11447135, 2.99821496, 1.42444134, 0.99958038, -0.00067334, -0.02617175, -0.01239988, 0.03473284, 0.91635942, -0.63105440, 87.58900452, 1211.84777832, 39.29000092, 0.00000000
1, 0.3500, 35, 0.00795936, -0.91781002, -0.37465912, -1.29958916, 1.28429580, 0.03701882, 13.24661255, -67.24604034, 45.43920517, 0.10146867, 3.00235295, 1.43595457, 0.99957824, -0.00055683, -0.02620649, -0.01250323, 0.04439213, 0.91598833, -0.62396789, 87.58900452, 1211.84777832, 39.29000092, 0.00000000
1, 0.3600, 36, 0.00761669, -0.92595810, -0.36656764, 0.26402384, 0.55524111, 0.24542491, 13.50256634, -66.14656067, 45.24888611, 0.04482169, 3.02087426, 1.39211786, 0.99957883, -0.00007076, -0.02636184, -0.01213369, 0.04484071, 0.92442906, -0.63205421, 87.58900452, 1211.84777832, 39.29000092, 0.00000000
1, 0.3700, 37, 0.00550713, -0.93458235, -0.36089882, 1.99913478, 0.92794967, 0.31826466, 13.72195435, -66.58635712, 45.74371719, 0.06485307, 3.02113676, 1.40293026, 0.99957764, -0.00024298, -0.02636628, -0.01222339, 0.04719520, 0.93362254, -0.63771093, 87.58900452, 1211.84777832, 39.29000092, 0.00000000
1, 0.3800, 38, 0.00780153, -0.93619365, -0.35113171, 4.15392017, 0.96570987, 0.08394718, 13.68538952, -66.93818665, 45.51533127, 0.10647020, 3.02372122, 1.41435611, 0.99957561, -0.00060310, -0.02639332, -0.01231345, 0.04492515, 0.93462038, -0.64747596, 87.58900452, 1211.84777832, 39.29000092, 0.00000000
1, 0.3900, 39, 0.00293442, -0.93742687, -0.35879353, 3.37420297, 1.69493723, 0.24229059, 13.68538952, -66.93818665, 45.51533127, 0.14030975, 3.02736735, 1.43278897, 0.99957258, -0.00089363, -0.02642890, -0.01246640, 0.04985719, 0.93518841, -0.63980949, 87.58900452, 1211.84777832, 39.29000092, 0.00000000
1, 0.4000, 40, -0.00195817, -0.93971246, -0.36150944, 1.83318686, 1.32005095, 0.39732906, 13.28317833, -64.16749573, 45.40114212, 0.15869741, 3.02824306, 1.44746912, 0.99957067, -0.00105054, -0.02643868, -0.01259020, 0.05478223, 0.93704343, -0.63709086, 87.58900452, 1211.84777832, 39.29000092, 0.00000000
1, 0.4100, 41, -0.00211238, -0.93879879, -0.35962769, 1.03565264, 0.57930297, 0.19083479, 13.39287472, -64.60728455, 45.53436661, 0.11947874, 3.02542233, 1.40278840, 0.99957639, -0.00071905, -0.02640948, -0.01220953, 0.05493059, 0.93613255, -0.63897282, 87.58900452, 1211.84777832, 39.29000092, 0.00000000
1, 0.4200, 42, 0.00451445, -0.94655269, -0.35662633, 0.63477963, -0.20780236, -0.14089607, 14.12416077, -66.76226807, 45.85791397, 0.12582625, 3.02602053, 1.40066767, 0.99957651, -0.00077485, -0.02641536, -0.01218957, 0.04826945, 0.94439423, -0.64197731, 87.58900452, 1211.84777832, 39.29000092, 0.00000000
1, 0.4300, 43, 0.01119763, -0.95362568, -0.35423487, -0.23848961, -0.58976454, -0.28688076, 13.50256634, -66.54237366, 45.81984329, 0.12340761, 3.02664065, 1.39402437, 0.99957705, -0.00075521, -0.02642047, -0.01213217, 0.04159889, 0.95145315, -0.64436805, 87.58900452, 1211.84777832, 39.29000092, 0.00000000
1, 0.4400, 44, 0.01540102, -0.95534009, -0.35767812, -0.72312683, -0.59413618, -0.25033316, 13.50256634, -66.54237366, 45.81984329, 0.11615463, 3.02691817, 1.38721573, 0.99957770, -0.00069349, -0.02642208, -0.01207444, 0.03740326, 0.95326591, -0.64092457, 87.58900452, 1211.84777832, 39.29000092, 0.00000000
1, 0.4500, 45, 0.02091550, -0.96075350, -0.35922590, -0.45866981, -0.82274878, 0.21866570, 13.50256634, -65.75074005, 45.32501221, 0.11153235, 3.02199602, 1.38003170, 0.99957973, -0.00065534, -0.02637862, -0.01201290, 0.03183932, 0.95878214, -0.63937968, 87.58900452, 1211.84777832, 39.29000092, 0.00000000
1, 0.4600, 46, 0.01725416, -0.96044976, -0.35867909, -0.30798236, -0.40068668, 0.71927059, 13.94133854, -65.57482910, 45.47727203, 0.10602915, 3.05297399, 1.33653152, 0.99957705, -0.00061419, -0.02664803, -0.01163438, 0.03555182, 0.95855051, -0.63992387, 87.58900452, 1211.84777832, 39.29000092, 0.00000000
1, 0.4700, 47, 0.00946621, -0.94978327, -0.35791847, -0.14472485, 0.44861609, 1.33428907, 13.97790337, -65.53085327, 45.62952805, 0.10459682, 3.04203105, 1.34531176, 0.99957865, -0.00060078, -0.02655247, -0.01171142, 0.04366966, 0.94795316, -0.64066714, 87.58900452, 1211.84777832, 39.29000092, 0.00000000
1, 0.4800, 48, 0.00365890, -0.94056708, -0.35810044, 0.36670157, 1.15338063, 1.50574589, 13.42943573, -65.04708099, 45.26791763, 0.10830607, 3.03195024, 1.36156106, 0.99957925, -0.00063042, -0.02646500, -0.01185241, 0.04929671, 0.93870711, -0.64049470, 87.58900452, 1211.84777832, 39.29000092, 0.00000000
1, 0.4900, 49, -0.00043210, -0.93101114, -0.35693818, 0.61883235, 1.27799857, 1.34938955, 13.42943573, -65.04708099, 45.26791763, 0.11453930, 3.02375960, 1.37856555, 0.99957943, -0.00068172, -0.02639431, -0.01199940, 0.05323388, 0.92905831, -0.64166492, 87.58900452, 1211.84777832, 39.29000092, 0.00000000
1, 0.5000, 50, -0.00155810, -0.92516655, -0.35546246, 0.94837463, 1.23652303, 0.89047313, 13.75851536, -65.39891052, 45.34404755, 0.12407031, 3.01972890, 1.39373863, 0.99957865, -0.00076179, -0.02636025, -0.01212960, 0.05425872, 0.92306930, -0.64314574, 87.58900452, 1211.84777832, 39.29000092, 0.00000000
1, 0.5100, 51, -0.00178634, -0.92298979, -0.35449556, 1.00922334, 1.05456865, 0.49973875, 12.80784130, -66.89420319, 46.12435913, 0.11562535, 3.01529646, 1.35970676, 0.99958330, -0.00069642, -0.02632049, -0.01183474, 0.05443554, 0.92079884, -0.64411509, 87.58900452, 1211.84777832, 39.29000092, 0.00000000
1, 0.5200, 52, 0.00270221, -0.92609990, -0.35613030, 0.85636944, 0.68195903, 0.12322833, 13.64882374, -66.67430878, 45.59146118, 0.12420527, 3.01651311, 1.36696231, 0.99958217, -0.00076947, -0.02633203, -0.01189604, 0.04991169, 0.92398703, -0.64248240, 87.58900452, 1211.84777832, 39.29000092, 0.00000000
1, 0.5300, 53, 0.01036685, -0.93059617, -0.35383272, 0.76435155, 0.88651568, 0.16296704, 14.16072655, -66.98216248, 45.91500854, 0.13188928, 3.01807857, 1.37623799, 0.99958086, -0.00083420, -0.02634655, -0.01197517, 0.04227370, 0.92834771, -0.64477831, 87.58900452, 1211.84777832, 39.29000092, 0.00000000
1, 0.5400, 54, 0.01041159, -0.93575817, -0.35316157, 0.64495021, 1.61722326, 0.54783911, 14.16072655, -66.98216248, 45.91500854, 0.13836990, 3.01857400, 1.39362872, 0.99957889, -0.00088668, -0.02635169, -0.01212537, 0.04225060, 0.93339181, -0.64544803, 87.58900452, 1211.84777832, 39.29000092, 0.00000000
1, 0.5500, 55, 0.00917843, -0.93882197, -0.35532001, 0.43539003, 2.29462290, 1.00217950, 13.72195435, -64.73921967, 45.59146118, 0.14278328, 3.01717782, 1.41885138, 0.99957639, -0.00091953, -0.02634018, -0.01234439, 0.04347137, 0.93635619, -0.64328998, 87.58900452, 1211.84777832, 39.29000092, 0.00000000
1, 0.5600, 56, 0.00865184, -0.94241858, -0.35587463, 0.29619238, 2.74558759, 1.69764030, 12.99066353, -65.09105682, 45.53436661, 0.14212768, 3.02043271, 1.40796399, 0.99957693, -0.00091596, -0.02636841, -0.01224953, 0.04396129, 0.93991363, -0.64273715, 87.58900452, 1211.84777832, 39.29000092, 0.00000000
1, 0.5700, 57, 0.00704731, -0.94529474, -0.35474357, 0.60717010, 3.28898549, 2.20030570, 13.21005249, -65.31095886, 46.33370972, 0.14828616, 3.01127076, 1.44677675, 0.99957466, -0.00096176, -0.02628948, -0.01258680, 0.04554880, 0.94275123, -0.64386904, 87.58900452, 1211.84777832, 39.29000092, 0.00000000
1, 0.5800, 58, 0.00503261, -0.94520527, -0.35454953, 0.72562689, 3.95778227, 2.28431726, 13.68538952, -67.07012177, 45.85791397, 0.15565580, 3.00364947, 1.49220288, 0.99957132, -0.00101649, -0.02622421, -0.01298147, 0.04741067, 0.94254243, -0.64407080, 87.58900452, 1211.84777832, 39.29000092, 0.00000000
1, 0.5900, 59, 0.00563702, -0.94289601, -0.35348025, 1.05036759, 4.06666994, 2.07467294, 13.68538952, -67.07012177, 45.85791397, 0.16627000, 2.99836540, 1.53807306, 0.99956715, -0.00109920, -0.02617976, -0.01337925, 0.04670443, 0.94007641, -0.64514500, 87.58900452, 1211.84777832, 39.29000092, 0.00000000
1, 0.6000, 60, 0.00528225, -0.94227391, -0.35658729, 1.14283299, 4.00134134, 1.91481185, 12.95409870, -66.80625153, 46.18145370, 0.17778738, 2.99433422, 1.58282721, 0.99956262, -0.00118993, -0.02614641, -0.01376706, 0.04698339, 0.93925053, -0.64204133, 87.58900452, 1211.84777832, 39.29000092, 0.00000000
1, 0.6100, 61, 0.01036364, -0.94171071, -0.35468164, 0.76045173, 2.93763900, 1.71783578, 13.79508114, -65.88268280, 45.81984329, 0.17863330, 3.00253081, 1.57463431, 0.99956179, -0.00119819, -0.02621793, -0.01369527, 0.04187569, 0.93855047, -0.64394796, 87.58900452, 1211.84777832, 39.29000092, 0.00000000
1, 0.6200, 62, 0.01979155, -0.94146425, -0.35380772, 0.05133057, 2.09209943, 1.66707253, 13.21005249, -65.97064209, 45.68662262, 0.17919016, 2.99417591, 1.60007274, 0.99956059, -0.00119825, -0.02614538, -0.01391718, 0.03249509, 0.93834168, -0.64481950, 87.58900452, 1211.84777832, 39.29000092, 0.00000000
1, 0.6300, 63, 0.02649739, -0.94748527, -0.35239303, -0.50338429, 1.93307650, 1.68300486, 13.28317833, -65.88268280, 45.53436661, 0.17419842, 2.98512554, 1.62380016, 0.99955976, -0.00115041, -0.02606607, -0.01412543, 0.02563863, 0.94441456, -0.64624226, 87.58900452, 1211.84777832, 39.29000092, 0.00000000
1, 0.6400, 64, 0.03082376, -0.95262527, -0.35302877, -0.36567566, 2.43019962, 1.78092659, 13.53913212, -65.53085327, 45.70565414, 0.17058642, 2.97689319, 1.65259528, 0.99955809, -0.00111340, -0.02599409, -0.01437756, 0.02116023, 0.94963193, -0.64561474, 87.58900452, 1211.84777832, 39.29000092, 0.00000000
1, 0.6500, 65, 0.03063797, -0.95313042, -0.35208058, 0.10836247, 3.16755533, 2.04107428, 13.53913212, -65.53085327, 45.70565414, 0.17172724, 2.96878529, 1.68943715, 0.99955523, -0.00111604, -0.02592387, -0.01469880, 0.02120501, 0.95014465, -0.64657021, 87.58900452, 1211.84777832, 39.29000092, 0.00000000
1, 0.6600, 66, 0.02248672, -0.95107359, -0.35086259, 0.27763388, 3.86792755, 2.31895542, 13.61225796, -66.19053650, 45.93403625, 0.17456956, 2.97614479, 1.69388103, 0.99955302, -0.00113887, -0.02598848, -0.01473680, 0.02928141, 0.94805640, -0.64779198, 87.58900452, 1211.84777832, 39.29000092, 0.00000000
1, 0.6700, 67, 0.01448794, -0.94552511, -0.34857178, 0.11228456, 4.62482262, 2.12443471, 13.42943573, -64.78320312, 45.80081940, 0.17576949, 2.97232127, 1.74469972, 0.99954724, -0.00113832, -0.02595579, -0.01517987, 0.03738030, 0.94246352, -0.65007746, 87.58900452, 1211.84777832, 39.29000092, 0.00000000
1, 0.6800, 68, 0.00498199, -0.94287920, -0.34927204, -0.48428500, 5.20394707, 2.10327864, 13.35630894, -64.91514587, 45.19178772, 0.17099857, 2.97071481, 1.80056190, 0.99954009, -0.00108427, -0.02594167, -0.01566824, 0.04684890, 0.93985736, -0.64937925, 87.58900452, 1211.84777832, 39.29000092, 0.00000000
1, 0.6900, 69, 0.00455737, -0.93869025, -0.35441574, -1.21478546, 5.22106266, 1.75430763, 12.80784130, -65.31095886, 45.30598068, 0.15891193, 2.97244787, 1.85500336, 0.99953222, -0.00096628, -0.02595560, -0.01614582, 0.04728107, 0.93583322, -0.64423567, 87.58900452, 1211.84777832, 39.29000092, 0.00000000
1, 0.7000, 70, 0.00341281, -0.93229395, -0.35905918, -1.50638795, 4.38477564, 1.33331692, 12.80784130, -65.31095886, 45.30598068, 0.14390205, 2.97522449, 1.89999580, 0.99952531, -0.00082476, -0.02597803, -0.01654163, 0.04846784, 0.92968780, -0.63959074, 87.58900452, 1211.84777832, 39.29000092, 0.00000000
1, 0.7100, 71, 0.01331348, -0.92919970, -0.36446717, -1.56248248, 3.20640302, 0.95714861, 13.39287472, -66.10257721, 45.78178406, 0.10757341, 2.99673033, 1.88973284, 0.99952215, -0.00050711, -0.02616033, -0.01646009, 0.03870307, 0.92695653, -0.63417649, 87.58900452, 1211.84777832, 39.29000092, 0.00000000
1, 0.7200, 72, 0.02347120, -0.92553568, -0.36113006, -1.50062191, 1.86403704, 1.22756875, 12.95409870, -66.19053650, 45.74371719, 0.09258610, 2.99174142, 1.91072667, 0.99952036, -0.00037232, -0.02611473, -0.01664668, 0.02876190, 0.92382443, -0.63750339, 87.58900452, 1211.84777832, 39.29000092, 0.00000000
1, 0.7300, 73, 0.04023604, -0.92299426, -0.35385194, -1.50426567, 1.32227194, 1.83143091, 13.57569790, -66.10257721, 45.91500854, 0.07755621, 2.97920489, 1.92875683, 0.99952054, -0.00023896, -0.02600323, -0.01680749, 0.01183024, 0.92154461, -0.64479065, 87.58900452, 1211.84777832, 39.29000092, 0.00000000
1, 0.7400, 74, 0.04916297, -0.92134416, -0.34761971, -1.34068573, 1.65183365, 2.75193119, 13.31974411, -65.31095886, 45.74371719, 0.06415004, 2.95919490, 1.95317650, 0.99952155, -0.00011946, -0.02582676, -0.01702371, 0.00260081, 0.92014384, -0.65103894, 87.58900452, 1211.84777832, 39.29000092, 0.00000000
1, 0.7500, 75, 0.05150746, -0.92220181, -0.34513876, -1.00948274, 2.83585596, 3.97113490, 13.31974411, -65.31095886, 45.74371719, 0.05408669, 2.93192315, 1.99313724, 0.99952161, -0.00002682, -0.02558739, -0.01737475, -0.00017442, 0.92119169, -0.65354228, 87.58900452, 1211.84777832, 39.29000092, 0.00000000
1, 0.7600, 76, 0.04492987, -0.92186600, -0.34745431, -0.81295449, 3.40497828, 4.94930649, 12.69814968, -66.14656067, 45.74371719, 0.04320029, 2.92216277, 2.00291967, 0.99952233, 0.00006884, -0.02550060, -0.01746258, 0.00596170, 0.92102683, -0.65124947, 87.58900452, 1211.84777832, 39.29000092, 0.00000000
1, 0.7700, 77, 0.03237244, -0.92179972, -0.35574463, -0.52163339, 3.59944892, 5.79626179, 13.06379032, -67.33399963, 46.29565048, 0.03799264, 2.88047671, 2.05667043, 0.99952322, 0.00011969, -0.02513615, -0.01793286, 0.01816273, 0.92110097, -0.64297736, 87.58900452, 1211.84777832, 39.29000092, 0.00000000
1, 0.7800, 78, 0.01944249, -0.92233747, -0.36278185, -0.61434245, 2.88430595, 6.46706438, 13.10035515, -67.24604034, 45.89597321, 0.03180600, 2.82999969, 2.10602713, 0.99952638, 0.00017638, -0.02469482, -0.01836506, 0.03027467, 0.92174548, -0.63598126, 87.58900452, 1211.84777832, 39.29000092, 0.00000000
1, 0.7900, 79, 0.01339130, -0.92078602, -0.35646772, -0.27099568, 1.24676299, 6.02728558, 13.24661255, -67.02614594, 46.23855209, 0.02902607, 2.77791214, 2.13868070, 0.99953222, 0.00019919, -0.02423998, -0.01865080, 0.03541075, 0.92026097, -0.64234054, 87.58900452, 1211.84777832, 39.29000092, 0.00000000
1, 0.8000, 80, 0.01094412, -0.92271996, -0.35989285, 0.00891266, -0.76297283, 5.22831011, 13.24661255, -67.02614594, 46.23855209, 0.02909775, 2.72627425, 2.14986324, 0.99954116, 0.00019247, -0.02378955, -0.01874864, 0.03695197, 0.92221868, -0.63895929, 87.58900452, 1211.84777832, 39.29000092, 0.00000000
1, 0.8100, 81, 0.01092034, -0.93794644, -0.36889437, 0.03015152, -2.64128160, 3.60670757, 12.80784130, -66.45441437, 46.35274506, 0.01845289, 2.69808722, 2.09627652, 0.99955571, 0.00026970, -0.02354208, -0.01828358, 0.03622527, 0.93747610, -0.62999356, 87.58900452, 1211.84777832, 39.29000092, 0.00000000
1, 0.8200, 82, 0.02194865, -0.96825111, -0.37219110, -0.46729410, -4.40073538, 1.81340849, 12.62501812, -67.02614594, 45.87694168, 0.01390218, 2.66567659, 2.06120992, 0.99956787, 0.00029710, -0.02325873, -0.01797879, 0.02475640, 0.96796936, -0.62671757, 87.58900452, 1211.84777832, 39.29000092, 0.00000000
1, 0.8300, 83, 0.03431227, -1.00717080, -0.39279610, -0.68152452, -5.29542780, -0.26140776, 12.73470974, -65.35493469, 45.34404755, 0.00728115, 2.64955139, 2.01036692, 0.99957889, 0.00034207, -0.02311718, -0.01753670, 0.01199919, 1.00699639, -0.60613096, 87.58900452, 1211.84777832, 39.29000092, 0.00000000
1, 0.8400, 84, 0.04795492, -1.02848947, -0.36353913, -2.00303078, -7.63255310, -1.74792051, 12.11311531, -65.70676422, 45.61049652, -0.01244646, 2.63912988, 1.93176210, 0.99959278, 0.00049677, -0.02302361, -0.01685503, -0.00182780, 1.02855980, -0.63539648, 87.58900452, 1211.84777832, 39.29000092, 0.00000000
1, 0.8500, 85, 0.06285682, -1.03346217, -0.34525862, -2.47128654, -12.67267227, -2.27432966, 12.11311531, -65.70676422, 45.61049652, -0.03660997, 2.61590648, 1.80389369, 0.99961543, 0.00067867, -0.02281824, -0.01574448, -0.01704591, 1.03395653, -0.65369129, 87.58900452, 1211.84777832, 39.29000092, 0.00000000
1, 0.8600, 86, 0.07600275, -1.03414845, -0.31404385, -2.25553489, -16.32107925, -2.58021092, 12.51532650, -68.25756073, 45.53436661, -0.04344497, 2.60195208, 1.60843861, 0.99964356, 0.00069767, -0.02269680, -0.01404080, -0.03063718, 1.03493035, -0.68492633, 87.58900452, 1211.84777832, 39.29000092, 0.00000000
1, 0.8700, 87, 0.07217655, -1.01544702, -0.30275184, -1.52696288, -13.43149948, -2.64473844, 13.02722931, -67.37797546, 45.62952805, -0.05804031, 2.57947350, 1.47266626, 0.99966383, 0.00079558, -0.02249988, -0.01285922, -0.02705030, 1.01637483, -0.69622898, 87.58900452, 1211.84777832, 39.29000092, 0.00000000
1, 0.8800, 88, 0.05664478, -0.99971646, -0.29967031, -3.37077832, -9.04600334, -3.07424641, 12.66158390, -66.32247925, 45.30598068, -0.09126092, 2.57639694, 1.37549055, 0.99967474, 0.00106599, -0.02247022, -0.01201799, -0.01169155, 1.00104463, -0.69931793, 87.58900452, 1211.84777832, 39.29000092, 0.00000000
1, 0.8900, 89, 0.03767277, -0.99094999, -0.30492225, -7.26371908, -7.01920319, -2.94941044, 12.73470974, -65.44289398, 45.17276001, -0.16356364, 2.57920671, 1.29576838, 0.99968147, 0.00168139, -0.02248832, -0.01133671, 0.00731208, 0.99327075, -0.69406265, 87.58900452, 1211.84777832, 39.29000092, 0.00000000
1, 0.9000, 90, 0.02233771, -0.98281580, -0.30724677, -11.26143837, -6.86236858, -1.84402537, 12.55188751, -65.13504028, 45.28695297, -0.27590734, 2.57210398, 1.21940613, 0.99968803, 0.00264583, -0.02241700, -0.01069245, 0.02260730, 0.98684102, -0.69173443, 87.58900452, 1211.84777832, 39.29000092, 0.00000000
1, 0.9100, 91, 0.01486537, -0.96889549, -0.30959776, -14.03669930, -8.92510891, -0.84177977, 12.55188751, -65.13504028, 45.28695297, -0.40525255, 2.55518246, 1.09176373, 0.99969906, 0.00374787, -0.02226148, -0.00960371, 0.02980241, 0.97515959, -0.68938428, 87.58900452, 1211.84777832, 39.29000092, 0.00000000
1, 0.9200, 92, 0.01426268, -0.95076174, -0.31965870, -15.50321770, -10.24971294, -0.28505650, 12.69814968, -67.33399963, 45.36307526, -0.55982912, 2.52100515, 0.98728025, 0.99970812, 0.00507357, -0.02195498, -0.00872081, 0.02995425, 0.95949697, -0.67932475, 87.58900452, 1211.84777832, 39.29000092, 0.00000000
1, 0.9300, 93, 0.01759366, -0.92800677, -0.33502799, -15.82313824, -10.45693207, -0.35874739, 12.80784130, -66.36645508, 45.22985458, -0.71752715, 2.48648381, 0.88053375, 0.99971449, 0.00642662, -0.02164779, -0.00781792, 0.02601217, 0.93948805, -0.66395456, 87.58900452, 1211.84777832, 39.29000092, 0.00000000
1, 0.9400, 94, 0.02303279, -0.90297019, -0.34414271, -15.65575695, -10.65662670, -0.66228908, 13.50256634, -66.36645508, 45.15372467, -0.87346601, 2.45376396, 0.77101886, 0.99971807, 0.00776449, -0.02135911, -0.00688982, 0.01999270, 0.91718030, -0.65482986, 87.58900452, 1211.84777832, 39.29000092, 0.00000000
1, 0.9500, 95, 0.03241222, -0.88663197, -0.35284600, -16.17345047, -10.72731304, -0.78523928, 12.55188751, -67.37797546, 45.09663010, -1.03451610, 2.42161798, 0.66022396, 0.99971831, 0.00914731, -0.02107781, -0.00595075, 0.01004818, 0.90361106, -0.64610761, 87.58900452, 1211.84777832, 39.29000092, 0.00000000
1, 0.9600, 96, 0.03693704, -0.88823479, -0.36517698, -15.97552490, -10.88099861, -0.73634100, 12.55188751, -67.37797546, 45.09663010, -1.19717956, 2.40037060, 0.51334798, 0.99971509, 0.01053860, -0.02089750, -0.00469738, 0.00501239, 0.90803707, -0.63374615, 87.58900452, 1211.84777832, 39.29000092, 0.00000000
1, 0.9700, 97, 0.03663273, -0.90072882, -0.37173125, -14.25094128, -11.64395428, -0.47640529, 12.84440613, -64.56330872, 44.20212555, -1.33879864, 2.36137247, 0.39634302, 0.99971271, 0.01175167, -0.02056347, -0.00369850, 0.00483509, 0.92318439, -0.62715596, 87.58900452, 1211.84777832, 39.29000092, 0.00000000
1, 0.9800, 98, 0.04126057, -0.92491168, -0.36886954, -11.21658611, -12.77715111, -0.03489976, 12.55188751, -65.22299194, 44.12599564, -1.44986594, 2.31382418, 0.27210501, 0.99971271, 0.01269745, -0.02015884, -0.00262934, -0.00057217, 0.94950664, -0.62999952, 87.58900452, 1211.84777832, 39.29000092, 0.00000000
1, 0.9900, 99, 0.03064371, -0.94524670, -0.37100813, -8.31723690, -12.46620178, 0.17370571, 12.99066353, -67.15808105, 44.63985825, -1.53184891, 2.26533222, 0.15305881, 0.99971408, 0.01339128, -0.01974782, -0.00159955, 0.00919512, 0.97147465, -0.62785363, 87.58900452, 1211.84777832, 39.29000092, 0.00000000
1, 1.0000, 100, 0.00486455, -0.95981807, -0.36591738, -5.76774168, -11.99165440, -0.35146794, 13.10035515, -66.71829224, 44.46857452, -1.58824146, 2.22338820, 0.03778625, 0.99971569, 0.01386336, -0.01939506, -0.00059855, 0.03419335, 0.98718095, -0.63294476, 87.58900452, 1211.84777832, 39.29000092, 0.00000000
1, 1.0100, 101, -0.01072630, -0.96308422, -0.36069587, -3.17018723, -13.37114811, -1.86499596, 13.10035515, -66.71829224, 44.46857452, -1.61099792, 2.19310355, -0.13201460, 0.99971771, 0.01403351, -0.01915155, 0.00088269, 0.04916151, 0.99111396, -0.63817203, 87.58900452, 1211.84777832, 39.29000092, 0.00000000
1, 1.0200, 102, -0.00909925, -0.96652985, -0.37094867, -1.36272073, -14.39404011, -3.52681422, 12.36906433, -65.83870697, 44.16406250, -1.62280691, 2.17145514, -0.27923065, 0.99971801, 0.01411243, -0.01898093, 0.00216773, 0.04711395, 0.99476457, -0.62792951, 87.58900452, 1211.84777832, 39.29000092, 0.00000000
1, 1.0300, 103, -0.00998028, -0.96321678, -0.37902665, -1.12446105, -14.74650383, -4.95879650, 12.66158390, -65.09105682, 44.01180267, -1.63209999, 2.16172051, -0.43498239, 0.99971449, 0.01416804, -0.01891545, 0.00352621, 0.04774877, 0.99160409, -0.61985660, 87.58900452, 1211.84777832, 39.29000092, 0.00000000
1, 1.0400, 104, -0.00838828, -0.96140474, -0.38035008, -2.81645489, -14.91964817, -5.67796946, 12.29593849, -65.04708099, 43.70729446, -1.65825057, 2.15791726, -0.59589940, 0.99970603, 0.01436979, -0.01890327, 0.00492623, 0.04606449, 0.99013323, -0.61852688, 87.58900452, 1211.84777832, 39.29000092, 0.00000000
1, 1.0500, 105, -0.00022548, -0.95989323, -0.38954216, -3.64824247, -14.62224197, -5.37034082, 13.24661255, -66.05860138, 43.99277496, -1.69276655, 2.15228987, -0.75330961, 0.99969482, 0.01464526, -0.01887580, 0.00629452, 0.03782371, 0.98917615, -0.60932159, 87.58900452, 1211.84777832, 39.29000092, 0.00000000
1, 1.0600, 106, 0.01018358, -0.95532280, -0.39924160, -3.95630789, -13.29717731, -4.69114304, 13.24661255, -66.05860138, 43.99277496, -1.73440254, 2.15422606, -0.93418515, 0.99967790, 0.01497853, -0.01891864, 0.00786534, 0.02734191, 0.98526746, -0.59960532, 87.58900452, 1211.84777832, 39.29000092, 0.00000000
1, 1.0700, 107, 0.01637183, -0.94551444, -0.40270361, -4.51602030, -12.09615993, -3.89073491, 13.39287472, -65.26697540, 43.78342438, -1.77795768, 2.14426565, -1.06306088, 0.99966431, 0.01533804, -0.01885200, 0.00898379, 0.02112230, 0.97622633, -0.59612119, 87.58900452, 1211.84777832, 39.29000092, 0.00000000
1, 1.0800, 108, 0.02009009, -0.92670506, -0.40898952, -5.01584005, -10.75252533, -2.33164454, 12.66158390, -65.75074005, 43.68825912, -1.82670057, 2.12488294, -1.17383933, 0.99965167, 0.01574680, -0.01870196, 0.00994489, 0.01712838, 0.95823878, -0.58981991, 87.58900452, 1211.84777832, 39.29000092, 0.00000000
1, 1.0900, 109, 0.01604919, -0.90393752, -0.41637793, -4.75830364, -9.57135868, -0.97164863, 12.91753292, -67.37797546, 43.15536499, -1.87301636, 2.09733582, -1.26837993, 0.99964106, 0.01613813, -0.01847899, 0.01076603, 0.02074524, 0.93630666, -0.58242047, 87.58900452, 1211.84777832, 39.29000092, 0.00000000
1, 1.1000, 110, 0.00630344, -0.88091546, -0.41210404, -3.61772847, -8.81154442, 0.34163037, 12.44219589, -64.65126801, 43.45987701, -1.90802526, 2.06049752, -1.35030246, 0.99963391, 0.01643420, -0.01817268, 0.01148045, 0.02990511, 0.91398501, -0.58669293, 87.58900452, 1211.84777832, 39.29000092, 0.00000000
1, 1.1100, 111, -0.00671753, -0.85708553, -0.40995240, -2.06294370, -8.02904797, 1.51349235, 12.44219589, -64.65126801, 43.45987701, -1.95237398, 2.02049828, -1.46566653, 0.99962163, 0.01680733, -0.01784512, 0.01248580, 0.04221326, 0.89069706, -0.58885193, 87.58900452, 1211.84777832, 39.29000092, 0.00000000
1, 1.1200, 112, -0.01690947, -0.84356594, -0.40473616, -0.64424491, -7.46435881, 2.29446864, 12.58845234, -66.01461792, 43.07923508, -1.95779800, 1.97072244, -1.52613008, 0.99962151, 0.01685114, -0.01742040, 0.01301992, 0.05163227, 0.87769395, -0.59407794, 87.58900452, 1211.84777832, 39.29000092, 0.00000000
1, 1.1300, 113, -0.03197061, -0.84124255, -0.39574578, 0.51737833, -7.61589384, 2.67445111, 12.51532650, -66.23451233, 43.30761719, -1.95154560, 1.91689026, -1.58595145, 0.99962330, 0.01679414, -0.01695886, 0.01355082, 0.06577633, 0.87532616, -0.60310125, 87.58900452, 1211.84777832, 39.29000092, 0.00000000
1, 1.1400, 114, -0.04040135, -0.85569853, -0.38563409, 0.55701303, -8.21796608, 2.78471994, 12.99066353, -64.47534943, 42.77472687, -1.94473100, 1.85973227, -1.65090108, 0.99962467, 0.01673241, -0.01646893, 0.01412698, 0.07322652, 0.88966191, -0.61324978, 87.58900452, 1211.84777832, 39.29000092, 0.00000000
1, 1.1500, 115, -0.04130634, -0.88205945, -0.38318688, 0.09268022, -9.18657780, 1.97475326, 12.33250427, -65.04708099, 42.88891602, -1.94229174, 1.80635488, -1.72812068, 0.99962252, 0.01670717, -0.01601426, 0.01480895, 0.07317341, 0.91594571, -0.61573064, 87.58900452, 1211.84777832, 39.29000092, 0.00000000
1, 1.1600, 116, -0.03399249, -0.90971243, -0.38404369, -0.17829061, -9.91551018, 1.29228199, 12.33250427, -65.04708099, 42.88891602, -1.94485366, 1.75400329, -1.85933518, 0.99961156, 0.01671871, -0.01557707, 0.01596108, 0.06495613, 0.94358796, -0.61490262, 87.58900452, 1211.84777832, 39.29000092, 0.00000000
1, 1.1700, 117, -0.02827778, -0.93019497, -0.38483578, -1.28665280, -9.92022228, 1.04947805, 13.02722931, -65.48686981, 43.26955795, -1.95587873, 1.70634484, -1.94754648, 0.99960345, 0.01681006, -0.01517582, 0.01673627, 0.05836009, 0.96422052, -0.61413229, 87.58900452, 1211.84777832, 39.29000092, 0.00000000
1, 1.1800, 118, -0.02442916, -0.93877184, -0.38842437, -2.81673074, -8.88156128, 0.81232178, 13.10035515, -65.09105682, 43.17439651, -1.98232567, 1.66479695, -2.02784061, 0.99959284, 0.01703662, -0.01482920, 0.01743954, 0.05374398, 0.97314584, -0.61055464, 87.58900452, 1211.84777832, 39.29000092, 0.00000000
1, 1.1900, 119, -0.02476036, -0.93662530, -0.39348936, -4.51812935, -7.31844902, 0.95586008, 12.95409870, -64.73921967, 43.28859329, -2.02606773, 1.62783432, -2.09399104, 0.99958056, 0.01741559, -0.01452348, 0.01801670, 0.05340546, 0.97166514, -0.60548592, 87.58900452, 1211.84777832, 39.29000092, 0.00000000
1, 1.2000, 120, -0.02660628, -0.92392832, -0.40012604, -4.83436775, -6.31140661, 1.13620436, 12.55188751, -64.73921967, 42.50827408, -2.07316470, 1.59301424, -2.15028310, 0.99956846, 0.01782505, -0.01423591, 0.01850733, 0.05463684, 0.95978099, -0.59883779, 87.58900452, 1211.84777832, 39.29000092, 0.00000000
1, 1.2100, 121, -0.02847467, -0.91107559, -0.39713129, -4.35975790, -5.55603790, 1.34399402, 12.62501812, -63.99157715, 42.48923874, -2.12437034, 1.55932915, -2.24430895, 0.99954885, 0.01826585, -0.01396535, 0.01932666, 0.05590127, 0.94774532, -0.60181963, 87.58900452, 1211.84777832, 39.29000092, 0.00000000
1, 1.2200, 122, -0.03447588, -0.90266240, -0.39485967, -3.94051099, -4.38684511, 1.40244889, 12.62501812, -63.99157715, 42.48923874, -2.16290379, 1.52940023, -2.28132463, 0.99953979, 0.01860271, -0.01371680, 0.01964983, 0.06135417, 0.94014674, -0.60407597, 87.58900452, 1211.84777832, 39.29000092, 0.00000000
1, 1.2300, 123, -0.03848242, -0.90428728, -0.39017671, -3.31375623, -3.48138142, 0.89221805, 12.99066353, -65.09105682, 42.98407745, -2.19532156, 1.50765920, -2.31163287, 0.99953169, 0.01888573, -0.01353772, 0.01991400, 0.06492327, 0.94237781, -0.60874772, 87.58900452, 1211.84777832, 39.29000092, 0.00000000
1, 1.2400, 124, -0.04031248, -0.91319770, -0.39136827, -2.42834020, -3.27577782, 0.27859059, 12.44219589, -64.16749573, 43.30761719, -2.21887040, 1.49238062, -2.34195828, 0.99952412, 0.01909030, -0.01341360, 0.02017835, 0.06645132, 0.95176286, -0.60754585, 87.58900452, 1211.84777832, 39.29000092, 0.00000000
1, 1.2500, 125, -0.03597656, -0.92250377, -0.39267990, -1.43921971, -4.66525173, -0.33373216, 12.07655048, -64.69524384, 42.52730942, -2.23214698, 1.47738051, -2.38694787, 0.99951559, 0.01920360, -0.01329264, 0.02057180, 0.06185505, 0.96136165, -0.60622966, 87.58900452, 1211.84777832, 39.29000092, 0.00000000
1, 1.2600, 126, -0.03250086, -0.92777413, -0.38766450, -0.71510774, -4.98094225, -0.62383777, 11.71090508, -64.43137360, 42.31795502, -2.23663020, 1.46149993, -2.48383904, 0.99949884, 0.01923449, -0.01317120, 0.02141913, 0.05812613, 0.96677768, -0.61124599, 87.58900452, 1211.84777832, 39.29000092, 0.00000000
1, 1.2700, 127, -0.02758615, -0.92947394, -0.38743836, -0.28808546, -4.53073406, -0.66841418, 11.71090508, -64.43137360, 42.31795502, -2.23836970, 1.45012057, -2.52830124, 0.99949133, 0.01924677, -0.01307973, 0.02180871, 0.05296481, 0.96851361, -0.61147696, 87.58900452, 1211.84777832, 39.29000092, 0.00000000
1, 1.2800, 128, -0.02581271, -0.93125981, -0.39250860, -0.40966922, -3.80260563, -0.12538497, 12.80784130, -64.21147156, 42.85084915, -2.24155664, 1.43654072, -2.56399870, 0.99948543, 0.01927317, -0.01296790, 0.02212206, 0.05097555, 0.97033608, -0.60641074, 87.58900452, 1211.84777832, 39.29000092, 0.00000000
1, 1.2900, 129, -0.02764445, -0.92979169, -0.39454880, -0.43080363, -2.90869594, 0.82512349, 12.33250427, -65.61880493, 42.64150238, -2.24521351, 1.41766977, -2.58782125, 0.99948221, 0.01930613, -0.01280803, 0.02233270, 0.05252136, 0.96893132, -0.60437524, 87.58900452, 1211.84777832, 39.29000092, 0.00000000
1, 1.3000, 130, -0.03347635, -0.93208039, -0.39598271, -0.52664453, -1.98419535, 1.96986485, 12.18624687, -65.48686981, 42.94601059, -2.25015879, 1.39181650, -2.59874082, 0.99948180, 0.01935321, -0.01258534, 0.02243188, 0.05794049, 0.97130162, -0.60294831, 87.58900452, 1211.84777832, 39.29000092, 0.00000000
1, 1.3100, 131, -0.04007050, -0.93558335, -0.39651060, -0.48479164, -1.66847324, 2.62677169, 12.29593849, -64.12351990, 42.47021484, -2.25921702, 1.35013115, -2.65365887, 0.99947357, 0.01943469, -0.01223285, 0.02291715, 0.06398518, 0.97490454, -0.60242981, 87.58900452, 1211.84777832, 39.29000092, 0.00000000
1, 1.3200, 132, -0.03853290, -0.94077182, -0.39665410, -0.55915296, -1.56812525, 2.75215721, 12.29593849, -64.12351990, 42.47021484, -2.26465392, 1.31867290, -2.65772462, 0.99947500, 0.01948811, -0.01196025, 0.02295753, 0.06174996, 0.98024237, -0.60229683, 87.58900452, 1211.84777832, 39.29000092, 0.00000000
1, 1.3300, 133, -0.03314491, -0.94112438, -0.39635161, -0.48087400, -1.80254316, 2.43057990, 12.22280693, -64.29943085, 42.56536865, -2.26919937, 1.28928077, -2.66516447, 0.99947548, 0.01953300, -0.01170607, 0.02302709, 0.05583458, 0.98068225, -0.60260797, 87.58900452, 1211.84777832, 39.29000092, 0.00000000
1, 1.3400, 134, -0.02118408, -0.93707764, -0.39831498, -0.25333351, -2.32370806, 1.87399912, 12.36906433, -66.36645508, 42.69859695, -2.27128315, 1.26299024, -2.67942142, 0.99947464, 0.01955512, -0.01147962, 0.02315583, 0.04338995, 0.97668588, -0.60065353, 87.58900452, 1211.84777832, 39.29000092, 0.00000000
1, 1.3500, 135, -0.02014298, -0.92820758, -0.39525548, -0.13817255, -2.40060425, 1.37983751, 12.51532650, -65.66278839, 42.60343552, -2.27214408, 1.24096107, -2.69624782, 0.99947321, 0.01956552, -0.01129053, 0.02330637, 0.04193776, 0.96783996, -0.60372114, 87.58900452, 1211.84777832, 39.29000092, 0.00000000
1, 1.3600, 136, -0.01727328, -0.91814381, -0.39472121, -0.09312655, -2.49349642, 0.78008431, 12.25937271, -66.14656067, 42.45117950, -2.29140925, 1.25410378, -2.76448965, 0.99945462, 0.01972402, -0.01142082, 0.02389735, 0.03886853, 0.95786339, -0.60425621, 87.58900452, 1211.84777832, 39.29000092, 0.00000000
1, 1.3700, 137, -0.01306430, -0.90675211, -0.39400896, -0.00145853, -2.52509308, 0.65609139, 12.25937271, -66.14656067, 42.45117950, -2.29079938, 1.23826349, -2.78520679, 0.99945188, 0.01972003, -0.01128611, 0.02408090, 0.03477541, 0.94672179, -0.60495597, 87.58900452, 1211.84777832, 39.29000092, 0.00000000
1, 1.3800, 138, -0.01318237, -0.89758557, -0.39348301, 0.19550355, -2.14245939, 0.43501505, 12.00342369, -64.25545502, 42.20376587, -2.28829622, 1.22595429, -2.80314851, 0.99944961, 0.01969908, -0.01118131, 0.02423981, 0.03465781, 0.93752921, -0.60548812, 87.58900452, 1211.84777832, 39.29000092, 0.00000000
1, 1.3900, 139, -0.01492796, -0.89402097, -0.39498419, 0.87362683, -2.01962280, 0.59372741, 12.11311531, -65.09105682, 42.08957291, -2.27906013, 1.21266580, -2.81900811, 0.99944896, 0.01961985, -0.01106617, 0.02438137, 0.03618053, 0.93384635, -0.60399646, 87.58900452, 1211.84777832, 39.29000092, 0.00000000
1, 1.4000, 140, -0.01856499, -0.89810163, -0.39280707, 1.54977262, -1.76042378, 0.80804741, 12.33250427, -65.13504028, 42.27989578, -2.26315403, 1.19842434, -2.83130264, 0.99945039, 0.01948303, -0.01094067, 0.02449262, 0.03957597, 0.93769550, -0.60618782, 87.58900452, 1211.84777832, 39.29000092, 0.00000000
1, 1.4100, 141, -0.02719088, -0.90935034, -0.39116660, 1.60075963, -1.69396961, 0.96749336, 12.25937271, -65.70676422, 42.58440399, -2.25388861, 1.18833625, -2.89117336, 0.99943984, 0.01939874, -0.01086083, 0.02501744, 0.04796252, 0.94868225, -0.60784364, 87.58900452, 1211.84777832, 39.29000092, 0.00000000
1, 1.4200, 142, -0.03264140, -0.92847651, -0.39167094, 1.46534133, -2.36176062, 0.81324184, 12.25937271, -65.70676422, 42.58440399, -2.23864746, 1.17172456, -2.90905213, 0.99943995, 0.01926782, -0.01071563, 0.02517769, 0.05320238, 0.96762884, -0.60735071, 87.58900452, 1211.84777832, 39.29000092, 0.00000000
1, 1.4300, 143, -0.03061000, -0.94515008, -0.39582974, 1.41094470, -3.53812790, 0.31406224, 12.03998470, -65.09105682, 42.56536865, -2.22356296, 1.15516496, -2.93971753, 0.99943709, 0.01913713, -0.01057301, 0.02544940, 0.05087881, 0.98403561, -0.60320830, 87.58900452, 1211.84777832, 39.29000092, 0.00000000
1, 1.4400, 144, -0.02563271, -0.95499116, -0.39150757, 0.96029693, -4.39025450, -0.26497963, 12.25937271, -65.88268280, 42.08957291, -2.21267915, 1.14063871, -2.98069525, 0.99943095, 0.01904174, -0.01045071, 0.02581027, 0.04562915, 0.99364662, -0.60754490, 87.58900452, 1211.84777832, 39.29000092, 0.00000000
1, 1.4500, 145, -0.02269703, -0.95514339, -0.39070737, -0.61335379, -4.25882149, -0.66170233, 12.36906433, -65.48686981, 42.33699036, -2.21752620, 1.13025177, -3.02278996, 0.99942136, 0.01908258, -0.01036822, 0.02617874, 0.04248510, 0.99377251, -0.60835028, 87.58900452, 1211.84777832, 39.29000092, 0.00000000
1, 1.4600, 146, -0.02167898, -0.94594997, -0.39281490, -1.97565699, -3.97419167, -0.88006783, 12.29593849, -64.73921967, 42.18473053, -2.23634291, 1.13308048, -3.11040664, 0.99939770, 0.01923808, -0.01041191, 0.02694070, 0.04136402, 0.98481989, -0.60623550, 87.58900452, 1211.84777832, 39.29000092, 0.00000000
1, 1.4700, 147, -0.02009423, -0.93342471, -0.39495391, -2.83727741, -3.77396560, -0.94353509, 12.00342369, -64.73921967, 41.89925385, -2.26351953, 1.12710035, -3.15023756, 0.99938416, 0.01947292, -0.01037291, 0.02728665, 0.03980852, 0.97273350, -0.60407877, 87.58900452, 1211.84777832, 39.29000092, 0.00000000
1, 1.4800, 148, -0.01934954, -0.92016715, -0.39792755, -2.69932127, -3.51927376, -0.71008474, 12.00342369, -63.90362167, 41.89925385, -2.28941369, 1.11994004, -3.18674397, 0.99937159, 0.01969719, -0.01032290, 0.02760395, 0.03893944, 0.95994425, -0.60108894, 87.58900452, 1211.84777832, 39.29000092, 0.00000000
1, 1.4900, 149, -0.02042494, -0.91198897, -0.39944988, -1.71755767, -3.34344673, -0.49845251, 13.02722931, -64.51932526, 42.35601807, -2.30555964, 1.11152649, -3.22032070, 0.99936134, 0.01983706, -0.01025923, 0.02789682, 0.03988019, 0.95211416, -0.59955537, 87.58900452, 1211.84777832, 39.29000092, 0.00000000
1, 1.5000, 150, -0.02585878, -0.90782130, -0.39415640, -0.84446090, -2.99636340, -0.31804404, 12.14968109, -63.41984940, 42.60343552, -2.31309390, 1.10280132, -3.24955726, 0.99935365, 0.01990232, -0.01019005, 0.02815267, 0.04516609, 0.94813371, -0.60484421, 87.58900452, 1211.84777832, 39.29000092, 0.00000000
1, 1.5100, 151, -0.02951852, -0.91085595, -0.39852571, -0.43323109, -2.94252896, -0.26543561, 12.51532650, -64.60728455, 42.01344299, -2.33717871, 1.09763181, -3.32859564, 0.99933016, 0.02010664, -0.01016476, 0.02884075, 0.04869060, 0.95133603, -0.60047066, 87.58900452, 1211.84777832, 39.29000092, 0.00000000
1, 1.5200, 152, -0.02988219, -0.92179859, -0.40097731, -0.44145828, -3.95411038, -0.32183436, 12.25937271, -64.34340668, 41.97537994, -2.34039092, 1.08521831, -3.36646819, 0.99932098, 0.02013450, -0.01006397, 0.02917298, 0.04890689, 0.96261227, -0.59800833, 87.58900452, 1211.84777832, 39.29000092, 0.00000000
1, 1.5300, 153, -0.02730182, -0.93259037, -0.40053418, -0.51855046, -5.11890888, -0.48671335, 12.25937271, -64.34340668, 41.97537994, -2.34399319, 1.06979585, -3.41573095, 0.99930888, 0.02016562, -0.00993906, 0.02960506, 0.04607737, 0.97345734, -0.59845400, 87.58900452, 1211.84777832, 39.29000092, 0.00000000
1, 1.5400, 154, -0.02051719, -0.94023716, -0.39445353, -1.02889919, -5.99577475, -0.62663490, 12.69814968, -64.34340668, 41.88021851, -2.35240102, 1.05222988, -3.47385454, 0.99929357, 0.02023856, -0.00979831, 0.03011438, 0.03899584, 0.98121572, -0.60453558, 87.58900452, 1211.84777832, 39.29000092, 0.00000000
1, 1.5500, 155, -0.01623196, -0.94293898, -0.39113387, -1.14935505, -6.33752251, -0.77407765, 12.51532650, -64.47534943, 42.33699036, -2.36186981, 1.03468812, -3.53577232, 0.99927676, 0.02032059, -0.00965881, 0.03065672, 0.03440271, 0.98407608, -0.60785437, 87.58900452, 1211.84777832, 39.29000092, 0.00000000
1, 1.5600, 156, -0.01687774, -0.94155520, -0.39054641, -1.76171732, -6.15477133, -0.69804847, 12.25937271, -65.61880493, 41.89925385, -2.37588692, 1.02986145, -3.64202666, 0.99924570, 0.02043520, -0.00963942, 0.03158298, 0.03479657, 0.98290896, -0.60843748, 87.58900452, 1211.84777832, 39.29000092, 0.00000000
1, 1.5700, 157, -0.02133723, -0.93297726, -0.39154899, -2.56936526, -6.16196203, -0.64299345, 11.96685791, -65.48686981, 42.14667130, -2.39960456, 1.01172197, -3.70249748, 0.99922597, 0.02064207, -0.00949868, 0.03211164, 0.03911313, 0.97467887, -0.60742307, 87.58900452, 1211.84777832, 39.29000092, 0.00000000
1, 1.5800, 158, -0.02531051, -0.92775035, -0.39620093, -2.93243694, -5.89262342, -0.49559361, 11.96685791, -65.48686981, 42.14667130, -2.42703319, 0.99323928, -3.76011181, 0.99920607, 0.02088178, -0.00935570, 0.03261521, 0.04276759, 0.96991026, -0.60275745, 87.58900452, 1211.84777832, 39.29000092, 0.00000000
1, 1.5900, 159, -0.02745294, -0.92442763, -0.39426211, -1.95089948, -5.66505194, -0.30045113, 12.36906433, -65.79473114, 41.86118317, -2.44472623, 0.97384965, -3.81435204, 0.99918854, 0.02103729, -0.00920163, 0.03309038, 0.04457370, 0.96696925, -0.60468590, 87.58900452, 1211.84777832, 39.29000092, 0.00000000
1, 1.6000, 160, -0.03407225, -0.92364192, -0.39614409, -1.02686977, -5.16489124, -0.01151034, 12.18624687, -65.97064209, 41.84215927, -2.45335269, 0.95376861, -3.86240077, 0.99917448, 0.02111458, -0.00903788, 0.03351244, 0.05085011, 0.96639568, -0.60280061, 87.58900452, 1211.84777832, 39.29000092, 0.00000000
1, 1.6100, 161, -0.04063955, -0.92714709, -0.39254874, -0.72298175, -5.35433149, 0.17693844, 12.36906433, -65.35493469, 41.61376953, -2.45881820, 0.92827135, -3.95973492, 0.99914616, 0.02116227, -0.00883513, 0.03436553, 0.05703051, 0.97000855, -0.60639775, 87.58900452, 1211.84777832, 39.29000092, 0.00000000
1, 1.6200, 162, -0.04096229, -0.93387657, -0.38943139, -0.80650288, -6.40536594, 0.40119362, 12.22280693, -64.21147156, 41.48054886, -2.46484303, 0.89953834, -4.01747704, 0.99912953, 0.02121918, -0.00859711, 0.03487399, 0.05685706, 0.97683936, -0.60951889, 87.58900452, 1211.84777832, 39.29000092, 0.00000000
1, 1.6300, 163, -0.03486001, -0.94025934, -0.39279503, -1.46555316, -7.27222157, 0.63108200, 12.22280693, -64.21147156, 41.48054886, -2.47716355, 0.86527169, -4.08261061, 0.99910927, 0.02133241, -0.00831422, 0.03544750, 0.05018792, 0.98338753, -0.60615695, 87.58900452, 1211.84777832, 39.29000092, 0.00000000
1, 1.6400, 164, -0.03210705, -0.94277257, -0.39524445, -2.00091386, -7.53344774, 0.60964984, 12.40563011, -64.34340668, 41.67086411, -2.49470782, 0.83015728, -4.15048647, 0.99908692, 0.02149159, -0.00802622, 0.03604477, 0.04682194, 0.98617077, -0.60370505, 87.58900452, 1211.84777832, 39.29000092, 0.00000000
1, 1.6500, 165, -0.02909788, -0.94113964, -0.39547676, -2.75042367, -7.34437132, 0.22919552, 12.25937271, -64.73921967, 41.65183640, -2.51972461, 0.79922801, -4.21846437, 0.99906224, 0.02171490, -0.00777732, 0.03664168, 0.04323758, 0.98492098, -0.60346425, 87.58900452, 1211.84777832, 39.29000092, 0.00000000
1, 1.6600, 166, -0.02958561, -0.93408799, -0.39850837, -3.19571042, -6.78954363, -0.33786151, 12.11311531, -64.51932526, 41.49957657, -2.55210423, 0.78347558, -4.33090782, 0.99902058, 0.02199477, -0.00767192, 0.03762290, 0.04330043, 0.97838199, -0.60041600, 87.58900452, 1211.84777832, 39.29000092, 0.00000000
1, 1.6700, 167, -0.03016152, -0.92692995, -0.39864799, -3.24557614, -6.62928677, -0.72106248, 11.82060146, -65.26697540, 41.34732437, -2.58214569, 0.76401508, -4.39625597, 0.99899411, 0.02225882, -0.00752482, 0.03819445, 0.04362206, 0.97178358, -0.60025489, 87.58900452, 1211.84777832, 39.29000092, 0.00000000
1, 1.6800, 168, -0.03116127, -0.91740179, -0.40065208, -3.10420871, -6.31855202, -0.76769722, 11.82060146, -65.26697540, 41.34732437, -2.61086345, 0.74617583, -4.45887041, 0.99896836, 0.02251113, -0.00739118, 0.03874200, 0.04430649, 0.96276176, -0.59823209, 87.58900452, 1211.84777832, 39.29000092, 0.00000000
1, 1.6900, 169, -0.03057509, -0.91164303, -0.40383509, -2.90543628, -6.34987640, -0.85685545, 12.03998470, -65.35493469, 41.29022598, -2.63755369, 0.72900069, -4.52200317, 0.99894238, 0.02274566, -0.00726301, 0.03929412, 0.04340874, 0.95748758, -0.59503102, 87.58900452, 1211.84777832, 39.29000092, 0.00000000
1, 1.7000, 170, -0.02965450, -0.91095328, -0.40418929, -2.10352230, -6.33212423, -0.50736988, 12.88097191, -64.25545502, 41.25216293, -2.65625477, 0.70868212, -4.58319759, 0.99891853, 0.02291192, -0.00710454, 0.03983054, 0.04215775, 0.95718592, -0.59466314, 87.58900452, 1211.84777832, 39.29000092, 0.00000000
1, 1.7100, 171, -0.03344016, -0.91382724, -0.40132824, -1.24896574, -5.86453867, -0.35952789, 12.47876072, -63.55178452, 41.00474548, -2.67343712, 0.69348711, -4.68927097, 0.99887848, 0.02306055, -0.00699940, 0.04075724, 0.04561178, 0.96031994, -0.59751630, 87.58900452, 1211.84777832, 39.29000092, 0.00000000
1, 1.7200, 172, -0.03479370, -0.91398442, -0.39835963, -0.80438924, -5.58801031, -0.26718298, 12.66158390, -64.07953644, 41.19506836, -2.67940784, 0.67390597, -4.74202490, 0.99885923, 0.02311646, -0.00684148, 0.04122075, 0.04668034, 0.96068347, -0.60047865, 87.58900452, 1211.84777832, 39.29000092, 0.00000000
1, 1.7300, 173, -0.03650791, -0.91950858, -0.39761794, -1.19587100, -5.51819515, -0.52819192, 12.66158390, -64.07953644, 41.19506836, -2.68927121, 0.65697747, -4.79535627, 0.99883866, 0.02320545, -0.00670827, 0.04168853, 0.04808404, 0.96635705, -0.60121691, 87.58900452, 1211.84777832, 39.29000092, 0.00000000
1, 1.7400, 174, -0.03975532, -0.91851771, -0.39970782, -1.27553260, -5.59377384, -1.19751287, 12.77127552, -65.48686981, 40.98571396, -2.69981146, 0.64588070, -4.85205698, 0.99881613, 0.02329810, -0.00662691, 0.04218444, 0.05108968, 0.96554881, -0.59912133, 87.58900452, 1211.84777832, 39.29000092, 0.00000000
1, 1.7500, 175, -0.03971177, -0.91795504, -0.39859563, -1.17449319, -5.63163424, -1.98964214, 12.55188751, -65.61880493, 41.11893845, -2.70921993, 0.64190692, -4.91216850, 0.99879217, 0.02337812, -0.00660800, 0.04270866, 0.05093125, 0.96515524, -0.60022682, 87.58900452, 1211.84777832, 39.29000092, 0.00000000
1, 1.7600, 176, -0.04103944, -0.90937650, -0.39667174, -1.42658854, -5.92587519, -3.01459837, 12.33250427, -64.12351990, 40.85249329, -2.72583723, 0.64932150, -5.02765989, 0.99874496, 0.02351344, -0.00670253, 0.04371276, 0.05229077, 0.95678437, -0.60214043, 87.58900452, 1211.84777832, 39.29000092, 0.00000000
1, 1.7700, 177, -0.03584933, -0.90145934, -0.40298891, -1.87808657, -5.87746096, -4.10205364, 11.82060146, -64.21147156, 40.83345795, -2.74191403, 0.66373551, -5.09872103, 0.99871373, 0.02364378, -0.00684895, 0.04432812, 0.04732662, 0.94918227, -0.59580570, 87.58900452, 1211.84777832, 39.29000092, 0.00000000
1, 1.7800, 178, -0.02960135, -0.89773595, -0.41310909, -2.12022567, -5.83423662, -4.76838017, 12.22280693, -62.98005676, 41.17603302, -2.76035905, 0.68441153, -5.17213917, 0.99868053, 0.02379198, -0.00705153, 0.04496249, 0.04140779, 0.94577372, -0.58566660, 87.58900452, 1211.84777832, 39.29000092, 0.00000000
1, 1.7900, 179, -0.02267481, -0.89406949, -0.42285305, -1.70375812, -6.08628607, -4.89800215, 12.22280693, -62.98005676, 41.17603302, -2.77455831, 0.70527118, -5.24818563, 0.99864662, 0.02390268, -0.00725475, 0.04561990, 0.03484862, 0.94239289, -0.57590449, 87.58900452, 1211.84777832, 39.29000092, 0.00000000
1, 1.8000, 180, -0.01997331, -0.89096260, -0.42603195, -0.63447046, -5.75624037, -4.63066006, 12.18624687, -63.24393463, 41.25216293, -2.77825928, 0.72499490, -5.31960535, 0.99861634, 0.02392239, -0.00744302, 0.04623786, 0.03249992, 0.93942100, -0.57271469, 87.58900452, 1211.84777832, 39.29000092, 0.00000000
1, 1.8100, 181, -0.01685400, -0.88828635, -0.42659411, -0.02888213, -5.89498377, -4.24870729, 12.62501812, -63.19995117, 41.23313141, -2.79878712, 0.75574499, -5.44056177, 0.99856114, 0.02408063, -0.00774470, 0.04728394, 0.02974813, 0.93683195, -0.57214367, 87.58900452, 1211.84777832, 39.29000092, 0.00000000
1, 1.8200, 182, -0.01881940, -0.89271772, -0.42381662, 0.57181334, -5.65808487, -3.75337243, 12.40563011, -63.85964203, 40.73830032, -2.79062557, 0.76780677, -5.50701571, 0.99853468, 0.02399994, -0.00786035, 0.04786097, 0.03214307, 0.94146156, -0.57490587, 87.58900452, 1211.84777832, 39.29000092, 0.00000000
1, 1.8300, 183, -0.02569017, -0.90329266, -0.41873685, 1.31847811, -5.64247322, -3.29829240, 12.29593849, -65.09105682, 40.73830032, -2.77508307, 0.77579129, -5.57113218, 0.99851060, 0.02385671, -0.00793679, 0.04841902, 0.03918240, 0.95181048, -0.57999432, 87.58900452, 1211.84777832, 39.29000092, 0.00000000
1, 1.8400, 184, -0.03425295, -0.92047983, -0.41350758, 1.65679538, -6.02403879, -2.88547063, 12.29593849, -65.09105682, 40.73830032, -2.75607491, 0.77850294, -5.63697052, 0.99848652, 0.02368536, -0.00796599, 0.04899346, 0.04782600, 0.96867704, -0.58523804, 87.58900452, 1211.84777832, 39.29000092, 0.00000000
1, 1.8500, 185, -0.03616542, -0.93654269, -0.41358209, 1.35959923, -6.91894722, -2.86821890, 13.24661255, -63.72769928, 40.73830032, -2.73972678, 0.77753270, -5.71107578, 0.99845797, 0.02353818, -0.00796577, 0.04964050, 0.04974571, 0.98444140, -0.58517778, 87.58900452, 1211.84777832, 39.29000092, 0.00000000
1, 1.8600, 186, -0.03251791, -0.95230037, -0.42023966, 0.76691532, -8.41201210, -3.14389157, 12.62501812, -62.67220306, 40.58604431, -2.73464227, 0.78108782, -5.84911966, 0.99839836, 0.02348268, -0.00802284, 0.05084287, 0.04608614, 0.99999428, -0.57853019, 87.58900452, 1211.84777832, 39.29000092, 0.00000000
1, 1.8700, 187, -0.02691145, -0.95749432, -0.42209256, 0.19379565, -10.11105442, -3.40637565, 12.44219589, -62.93607712, 40.31959152, -2.72876692, 0.77244294, -5.95524168, 0.99835247, 0.02342798, -0.00796662, 0.05176969, 0.04045721, 1.00513101, -0.57668030, 87.58900452, 1211.84777832, 39.29000092, 0.00000000
1, 1.8800, 188, -0.02480313, -0.95101148, -0.42728445, -0.53316480, -10.40182686, -3.81456590, 12.88097191, -65.00309753, 40.33862686, -2.73000789, 0.76638514, -6.06601572, 0.99830204, 0.02343389, -0.00793706, 0.05273595, 0.03821516, 0.99861890, -0.57149172, 87.58900452, 1211.84777832, 39.29000092, 0.00000000
1, 1.8900, 189, -0.01920497, -0.93866390, -0.42793474, -1.39054990, -10.61269474, -3.92184520, 12.88097191, -65.00309753, 40.33862686, -2.73971581, 0.76043737, -6.17955685, 0.99824750, 0.02351338, -0.00791301, 0.05372565, 0.03251249, 0.98638618, -0.57083726, 87.58900452, 1211.84777832, 39.29000092, 0.00000000
1, 1.9000, 190, -0.01357524, -0.93305558, -0.43435594, -1.44974983, -10.58482933, -3.55193424, 13.06379032, -65.09105682, 40.30056381, -2.75003886, 0.75119638, -6.29143000, 0.99819291, 0.02360001, -0.00786040, 0.05470144, 0.02675001, 0.98096997, -0.56440854, 87.58900452, 1211.84777832, 39.29000092, 0.00000000
1, 1.9100, 191, -0.01138571, -0.92555267, -0.43643203, -1.01491106, -10.18110847, -2.84164429, 12.84440613, -63.63974380, 40.71926498, -2.77229381, 0.75131410, -6.44535685, 0.99811387, 0.02378321, -0.00790400, 0.05604067, 0.02441441, 0.97367024, -0.56232464, 87.58900452, 1211.84777832, 39.29000092, 0.00000000
1, 1.9200, 192, -0.01745442, -0.92155957, -0.43622354, 0.05674013, -9.24516964, -1.84086156, 12.55188751, -62.76015854, 39.72960281, -2.76823401, 0.73163456, -6.53740358, 0.99807036, 0.02375132, -0.00774968, 0.05684688, 0.03035955, 0.96989381, -0.56252432, 87.58900452, 1211.84777832, 39.29000092, 0.00000000
1, 1.9300, 193, -0.02436859, -0.91631085, -0.43718451, 1.22541571, -8.52521133, -1.23163879, 11.85716152, -63.02403641, 40.20540237, -2.75279474, 0.70925909, -6.61986589, 0.99803323, 0.02362256, -0.00756414, 0.05757090, 0.03689536, 0.96444321, -0.56157792, 87.58900452, 1211.84777832, 39.29000092, 0.00000000
1, 1.9400, 194, -0.03249650, -0.90583694, -0.43612128, 2.33001661, -8.40358257, -0.79300374, 11.85716152, -63.02403641, 40.20540237, -2.72637820, 0.68339288, -6.69893169, 0.99799979, 0.02340049, -0.00734174, 0.05826669, 0.04459286, 0.95358336, -0.56266499, 87.58900452, 1211.84777832, 39.29000092, 0.00000000
1, 1.9500, 195, -0.03807531, -0.89473844, -0.43754879, 3.22804999, -8.39482880, -0.90103734, 12.36906433, -62.58424377, 40.35765839, -2.69094777, 0.65861350, -6.77789879, 0.99796754, 0.02309967, -0.00712384, 0.05896183, 0.04973041, 0.94191921, -0.56126958, 87.58900452, 1211.84777832, 39.29000092, 0.00000000
1, 1.9600, 196, -0.04127400, -0.87715107, -0.43247312, 3.38135290, -8.93686104, -1.26446819, 13.02722931, -64.69524384, 40.22443390, -2.67582560, 0.63779002, -6.91181850, 0.99790180, 0.02297062, -0.00696156, 0.06013333, 0.05251620, 0.92379385, -0.56637526, 87.58900452, 1211.84777832, 39.29000092, 0.00000000
1, 1.9700, 197, -0.03899101, -0.85698467, -0.42534995, 3.62368965, -8.62939453, -2.12008262, 12.66158390, -63.81566238, 39.88185501, -2.63613486, 0.62337333, -6.99755239, 0.99786490, 0.02262747, -0.00683212, 0.06088525, 0.04995052, 0.90323859, -0.57351959, 87.58900452, 1211.84777832, 39.29000092, 0.00000000
1, 1.9800, 198, -0.03842435, -0.83340847, -0.41560575, 4.64928818, -7.76770687, -2.91370678, 12.11311531, -63.68372726, 40.26249695, -2.58638644, 0.61973846, -7.07799053, 0.99783176, 0.02219144, -0.00678961, 0.06158938, 0.04924563, 0.87887561, -0.58330148, 87.58900452, 1211.84777832, 39.29000092, 0.00000000
1, 1.9900, 199, -0.03990255, -0.81345499, -0.40615600, 6.01222420, -6.02311230, -4.02378988, 12.11311531, -63.68372726, 40.26249695, -2.52353120, 0.63326305, -7.14606380, 0.99780655, 0.02163272, -0.00688645, 0.06218322, 0.05084412, 0.85791016, -0.59279537, 87.58900452, 1211.84777832, 39.29000092, 0.00000000
1, 2.0000, 200, -0.04661749, -0.79957545, -0.39923772, 6.97713137, -4.21643925, -4.92040920, 12.25937271, -62.89209366, 40.58604431, -2.45160770, 0.66219693, -7.20053577, 0.99778914, 0.02098731, -0.00710933, 0.06265637, 0.05796251, 0.84282798, -0.59976196, 87.58900452, 1211.84777832, 39.29000092, 0.00000000
1, 2.0100, 201, -0.05128314, -0.78967953, -0.39300251, 7.76171541, -2.27366519, -5.83119440, 12.58845234, -63.50780487, 40.50991440, -2.38907218, 0.70621294, -7.28883791, 0.99775010, 0.02041287, -0.00747413, 0.06342097, 0.06330434, 0.83167201, -0.60604304, 87.58900452, 1211.84777832, 39.29000092, 0.00000000
1, 2.0200, 202, -0.04895097, -0.78949338, -0.39100653, 8.29753971, -1.04099524, -6.45731592, 12.47876072, -64.56330872, 40.45281982, -2.30496335, 0.76181328, -7.31931782, 0.99774545, 0.01964752, -0.00791692, 0.06368189, 0.06187027, 0.83026499, -0.60807830, 87.58900452, 1211.84777832, 39.29000092, 0.00000000
1, 2.0300, 203, -0.03620318, -0.79815531, -0.39643693, 9.08580685, -1.27838266, -6.25377846, 12.03998470, -63.55178452, 39.93895340, -2.21295953, 0.81469101, -7.35072041, 0.99774081, 0.01881465, -0.00833135, 0.06395256, 0.05009839, 0.83738077, -0.60269666, 87.58900452, 1211.84777832, 39.29000092, 0.00000000
1, 2.0400, 204, -0.00540157, -0.82422906, -0.39634898, 8.95022774, -3.21570492, -4.30774450, 12.03998470, -63.55178452, 39.93895340, -2.12189198, 0.84219247, -7.39246559, 0.99773067, 0.01800321, -0.00852653, 0.06431808, 0.01996492, 0.86184764, -0.60283697, 87.58900452, 1211.84777832, 39.29000092, 0.00000000
1, 2.0500, 205, 0.00941633, -0.87668914, -0.39659399, 8.13912010, -4.96443510, -1.61739039, 12.29593849, -62.89209366, 39.95798874, -2.03868699, 0.83817792, -7.44034863, 0.99771672, 0.01727748, -0.00845209, 0.06474181, 0.00528536, 0.91279179, -0.60264587, 87.58900452, 1211.84777832, 39.29000092, 0.00000000
1, 2.0600, 206, 0.01455541, -0.95228165, -0.39855668, 8.08800888, -6.43907547, 0.40842566, 12.58845234, -62.76015854, 40.39572144, -1.95509410, 0.83115202, -7.54099655, 0.99767220, 0.01654631, -0.00835823, 0.06562532, -0.00012375, 0.98694885, -0.60073793, 87.58900452, 1211.84777832, 39.29000092, 0.00000000
1, 2.0700, 207, 0.01627490, -1.02654207, -0.40119332, 9.21596622, -7.31646585, 1.08966041, 13.21005249, -63.59576416, 40.49088287, -1.86063981, 0.79329282, -7.59973621, 0.99765372, 0.01574163, -0.00798259, 0.06614911, -0.00218041, 1.05964315, -0.59815919, 87.58900452, 1211.84777832, 39.29000092, 0.00000000
1, 2.0800, 208, 0.01415329, -1.09268713, -0.40390605, 9.93751526, -8.61970806, 0.32176462, 12.58845234, -63.50780487, 40.49088287, -1.75838494, 0.75769728, -7.67313433, 0.99762654, 0.01486711, -0.00762318, 0.06680011, -0.00070113, 1.12403750, -0.59551179, 87.58900452, 1211.84777832, 39.29000092, 0.00000000
1, 2.0900, 209, 0.01408246, -1.14008403, -0.39867753, 8.84341717, -10.84037876, -0.82900780, 12.73470974, -64.16749573, 40.31959152, -1.66607547, 0.72445446, -7.77202368, 0.99758172, 0.01407661, -0.00729211, 0.06767148, -0.00122533, 1.16973579, -0.60080004, 87.58900452, 1211.84777832, 39.29000092, 0.00000000
1, 2.1000, 210, 0.01224525, -1.15936804, -0.40526640, 5.37183523, -12.08647919, -1.84654665, 12.73470974, -64.16749573, 40.31959152, -1.60783887, 0.69601440, -7.88807201, 0.99752098, 0.01357936, -0.00702388, 0.06868898, 0.00007794, 1.18773305, -0.59425521, 87.58900452, 1211.84777832, 39.29000092, 0.00000000
1, 2.1100, 211, 0.00908567, -1.14024150, -0.41491741, -0.08410238, -12.58191109, -2.49066567, 12.11311531, -62.84811401, 40.12927628, -1.60084772, 0.68265426, -8.06123066, 0.99741751, 0.01351608, -0.00692383, 0.07019836, 0.00284047, 1.16817725, -0.58462119, 87.58900452, 1211.84777832, 39.29000092, 0.00000000
1, 2.1200, 212, 0.00364938, -1.08213460, -0.42200616, -3.46418214, -11.49199581, -2.54530025, 12.36906433, -62.89209366, 39.84379578, -1.63094747, 0.66285133, -8.17887115, 0.99734211, 0.01378328, -0.00678406, 0.07122298, 0.00804545, 1.11037731, -0.57752651, 87.58900452, 1211.84777832, 39.29000092, 0.00000000
1, 2.1300, 213, -0.00556061, -1.00783694, -0.42295870, -4.09915924, -9.20346737, -2.17883420, 12.47876072, -62.93607712, 40.33862686, -1.66825235, 0.64821160, -8.27427769, 0.99727863, 0.01411151, -0.00669158, 0.07205301, 0.01696254, 1.03671288, -0.57655931, 87.58900452, 1211.84777832, 39.29000092, 0.00000000
1, 2.1400, 214, -0.01821430, -0.93781775, -0.41862580, -2.81253672, -6.60169458, -2.21596384, 12.44219589, -62.67220306, 40.20540237, -1.69363451, 0.64371479, -8.34509945, 0.99723083, 0.01433112, -0.00667726, 0.07266846, 0.02946163, 0.96722561, -0.58087844, 87.58900452, 1211.84777832, 39.29000092, 0.00000000
1, 2.1500, 215, -0.03436711, -0.87690854, -0.40808889, -1.07545936, -4.04585743, -2.37848544, 12.44219589, -62.67220306, 40.20540237, -1.70256293, 0.65040374, -8.39203739, 0.99719965, 0.01440180, -0.00674703, 0.07307553, 0.04566022, 0.90658450, -0.59140688, 87.58900452, 1211.84777832, 39.29000092, 0.00000000
1, 2.1600, 216, -0.05334549, -0.82504547, -0.38697103, 1.24219656, -2.06699491, -2.66038370, 12.11311531, -62.10047150, 39.80572891, -1.71519279, 0.65814358, -8.47711849, 0.99714321, 0.01450169, -0.00683321, 0.07381412, 0.06482904, 0.85475922, -0.61252141, 87.58900452, 1211.84777832, 39.29000092, 0.00000000
1, 2.1700, 217, -0.06549466, -0.80372989, -0.37713581, 3.62533903, -1.72094870, -2.74829197, 12.44219589, -64.21147156, 39.67250824, -1.67797422, 0.67712283, -8.50159931, 0.99713129, 0.01416408, -0.00697741, 0.07402685, 0.07719492, 0.83328432, -0.62235886, 87.58900452, 1211.84777832, 39.29000092, 0.00000000
1, 2.1800, 218, -0.07243118, -0.80723661, -0.37379062, 4.71045732, -2.96723890, -2.61960912, 12.07655048, -63.59576416, 39.93895340, -1.62948775, 0.69023359, -8.53654671, 0.99711400, 0.01373153, -0.00706436, 0.07433223, 0.08440235, 0.83598769, -0.62572420, 87.58900452, 1211.84777832, 39.29000092, 0.00000000
1, 2.1900, 219, -0.06572682, -0.83251739, -0.37288329, 4.39735508, -4.62274122, -2.26673317, 12.51532650, -61.83659363, 40.03411484, -1.58357656, 0.69388032, -8.58564186, 0.99708730, 0.01332664, -0.00707202, 0.07476179, 0.07783257, 0.86044002, -0.62665349, 87.58900452, 1211.84777832, 39.29000092, 0.00000000
1, 2.2000, 220, -0.04954481, -0.86996883, -0.36848286, 3.39649391, -6.20441675, -1.50589955, 12.51532650, -61.83659363, 40.03411484, -1.54719782, 0.68452919, -8.64700890, 0.99705172, 0.01301248, -0.00697389, 0.07529914, 0.06156568, 0.89718759, -0.63107443, 87.58900452, 1211.84777832, 39.29000092, 0.00000000
1, 2.2100, 221, -0.02933850, -0.90327281, -0.36825475, 2.49637890, -6.92646313, -0.79761481, 12.44219589, -62.01251602, 39.86282730, -1.51994050, 0.68152082, -8.76550007, 0.99697649, 0.01277012, -0.00694301, 0.07633208, 0.04115840, 0.92995536, -0.63131928, 87.58900452, 1211.84777832, 39.29000092, 0.00000000
1, 2.2200, 222, -0.01616733, -0.92480808, -0.36684996, 1.62177181, -6.13477230, -0.30368000, 11.89372730, -63.55178452, 39.91992188, -1.50146973, 0.66132325, -8.82261467, 0.99694121, 0.01261953, -0.00676128, 0.07683250, 0.02784248, 0.95111883, -0.63273561, 87.58900452, 1211.84777832, 39.29000092, 0.00000000
1, 2.2300, 223, -0.01048772, -0.93296641, -0.36816946, 0.97251582, -4.57023811, 0.25854829, 12.47876072, -62.71617889, 39.99604797, -1.49010849, 0.64179522, -8.86347103, 0.99691588, 0.01253146, -0.00658824, 0.07719090, 0.02181320, 0.95904291, -0.63142633, 87.58900452, 1211.84777832, 39.29000092, 0.00000000
1, 2.2400, 224, -0.01060388, -0.92517722, -0.36531493, 0.70451164, -2.73714781, 0.31548509, 12.36906433, -64.69524384, 39.50121689, -1.48209834, 0.62862009, -8.88728714, 0.99690121, 0.01246932, -0.00647081, 0.07740008, 0.02165773, 0.95108843, -0.63428819, 87.58900452, 1211.84777832, 39.29000092, 0.00000000
1, 2.2500, 225, -0.00988180, -0.91882390, -0.36738452, 1.01208520, -0.93214166, 0.26460049, 12.36906433, -64.69524384, 39.50121689, -1.47168386, 0.62268639, -8.89442348, 0.99689770, 0.01238234, -0.00641293, 0.07746344, 0.02078288, 0.94458675, -0.63222414, 87.58900452, 1211.84777832, 39.29000092, 0.00000000
1, 2.2600, 226, -0.00192257, -0.91378766, -0.37009218, 2.24942303, -0.47159082, -0.02833434, 11.96685791, -62.76015854, 39.65347290, -1.45454013, 0.70203614, -8.94997025, 0.99685854, 0.01217602, -0.00709754, 0.07793854, 0.01312045, 0.93926525, -0.62952030, 87.58900452, 1211.84777832, 39.29000092, 0.00000000
1, 2.2700, 227, 0.00213869, -0.92623895, -0.37330624, 3.80927134, -0.06082571, -0.27056774, 12.33250427, -63.81566238, 40.01508331, -1.41642129, 0.70436716, -8.94962406, 0.99686271, 0.01184284, -0.00709186, 0.07793763, 0.01013210, 0.95122403, -0.62630624, 87.58900452, 1211.84777832, 39.29000092, 0.00000000
1, 2.2800, 228, -0.00063060, -0.95469183, -0.37338665, 5.13791180, 0.48905784, -0.73768687, 12.84440613, -62.18843079, 39.71056747, -1.36514151, 0.71310163, -8.94526196, 0.99687046, 0.01139107, -0.00713253, 0.07790190, 0.01300825, 0.97886419, -0.62624454, 87.58900452, 1211.84777832, 39.29000092, 0.00000000
1, 2.2900, 229, -0.00233004, -0.98381251, -0.37066022, 5.50055313, 0.91270769, -1.29239571, 12.69814968, -63.28790665, 40.01508331, -1.31034184, 0.72856140, -8.93882942, 0.99687952, 0.01090422, -0.00722915, 0.07784775, 0.01493673, 1.00702894, -0.62899077, 87.58900452, 1211.84777832, 39.29000092, 0.00000000
1, 2.3000, 230, 0.00261056, -1.00789034, -0.36837891, 4.95299435, 0.64077926, -1.71831667, 12.69814968, -63.28790665, 40.01508331, -1.26084757, 0.74695760, -8.93677807, 0.99688458, 0.01046126, -0.00735538, 0.07783117, 0.01030781, 1.03020358, -0.63128865, 87.58900452, 1211.84777832, 39.29000092, 0.00000000
1, 2.3100, 231, 0.01002460, -1.01743233, -0.36728945, 4.34361029, 0.01219206, -1.34294450, 12.58845234, -61.92455292, 39.88185501, -1.19762003, 0.79547149, -8.99198914, 0.99685013, 0.00987447, -0.00773923, 0.07831088, 0.00331454, 1.03886294, -0.63239181, 87.58900452, 1211.84777832, 39.29000092, 0.00000000
1, 2.3200, 232, 0.01042495, -1.01160908, -0.36693564, 3.46916986, 0.30129427, -0.54316682, 12.25937271, -61.44078064, 39.72960281, -1.16297567, 0.80166668, -8.98945904, 0.99685436, 0.00956903, -0.00776924, 0.07829063, 0.00353733, 1.03211737, -0.63275659, 87.58900452, 1211.84777832, 39.29000092, 0.00000000
1, 2.3300, 233, -0.00016633, -0.98896843, -0.36442754, 2.79546142, 1.42454720, 0.76572609, 12.84440613, -61.88057327, 39.84379578, -1.13562226, 0.79984111, -8.97199631, 0.99686873, 0.00933350, -0.00773324, 0.07814074, 0.01414774, 1.00895309, -0.63527501, 87.58900452, 1211.84777832, 39.29000092, 0.00000000
1, 2.3400, 234, -0.01441482, -0.95412803, -0.36571798, 2.34292364, 2.59124422, 1.61781955, 12.62501812, -64.12351990, 39.97701645, -1.11329842, 0.79439330, -8.94079971, 0.99689204, 0.00914511, -0.00766814, 0.07787134, 0.02832038, 0.97369611, -0.63399386, 87.58900452, 1211.84777832, 39.29000092, 0.00000000
1, 2.3500, 235, -0.02586161, -0.92361856, -0.36817804, 2.54713082, 2.90937901, 2.20396709, 12.14968109, -64.12351990, 39.59637833, -1.08912849, 0.78465885, -8.90438938, 0.99691910, 0.00894387, -0.00756419, 0.07755705, 0.03962442, 0.94278967, -0.63154340, 87.58900452, 1211.84777832, 39.29000092, 0.00000000
1, 2.3600, 236, -0.02695091, -0.89885098, -0.36607397, 3.03363752, 2.17045021, 2.50335312, 12.14968109, -62.45230865, 39.59637833, -1.06783831, 0.78229392, -8.92787266, 0.99690503, 0.00875871, -0.00753100, 0.07776296, 0.04053900, 0.91757643, -0.63365835, 87.58900452, 1211.84777832, 39.29000092, 0.00000000
1, 2.3700, 237, -0.02079946, -0.88467199, -0.36239752, 3.80169439, 0.56428498, 2.44965696, 12.91753292, -61.92455292, 39.52024841, -1.03034902, 0.76163000, -8.91172123, 0.99691981, 0.00844765, -0.00732460, 0.07762661, 0.03423055, 0.90290540, -0.63734603, 87.58900452, 1211.84777832, 39.29000092, 0.00000000
1, 2.3800, 238, -0.01501348, -0.88517392, -0.35403043, 4.40706301, -0.81930065, 2.34840322, 12.07655048, -61.74863815, 39.57734680, -0.98632801, 0.73681086, -8.90849304, 0.99692643, 0.00808171, -0.00707863, 0.07760330, 0.02803610, 0.90268588, -0.64573139, 87.58900452, 1211.84777832, 39.29000092, 0.00000000
1, 2.3900, 239, -0.01103243, -0.90233719, -0.34635636, 4.68567133, -1.01385415, 1.78095460, 11.60121250, -62.36434555, 39.55831528, -0.93936586, 0.71656829, -8.90903282, 0.99693030, 0.00768684, -0.00687076, 0.07761242, 0.02366086, 0.91903436, -0.65342438, 87.58900452, 1211.84777832, 39.29000092, 0.00000000
1, 2.4000, 240, -0.00685523, -0.93027741, -0.34540337, 4.25156641, -1.65943396, 1.17104793, 12.88097191, -63.50780487, 39.50121689, -0.89643401, 0.69963229, -8.91804409, 0.99692792, 0.00732430, -0.00669492, 0.07769462, 0.01917376, 0.94619858, -0.65439397, 87.58900452, 1211.84777832, 39.29000092, 0.00000000
1, 2.4100, 241, -0.00459930, -0.95953810, -0.34171170, 3.94122958, -2.21941113, 0.63287562, 12.88097191, -63.50780487, 39.50121689, -0.82728606, 0.72032684, -8.98380566, 0.99688637, 0.00670476, -0.00683192, 0.07826935, 0.01680869, 0.97461498, -0.65810001, 87.58900452, 1211.84777832, 39.29000092, 0.00000000
1, 2.4200, 242, -0.00049474, -0.98853528, -0.33753639, 3.47685623, -2.77568293, 0.85111958, 11.74746990, -63.11199188, 39.65347290, -0.79167086, 0.70231491, -9.00477791, 0.99687493, 0.00640602, -0.00665207, 0.07845508, 0.01287351, 1.00258517, -0.66228831, 87.58900452, 1211.84777832, 39.29000092, 0.00000000
1, 2.4300, 243, 0.00316413, -1.00770938, -0.32828030, 2.41349840, -3.24113059, 1.53014183, 12.11311531, -61.74863815, 39.65347290, -0.76657718, 0.67630297, -9.02817631, 0.99686146, 0.00620424, -0.00640987, 0.07866170, 0.00882480, 1.02122688, -0.67155647, 87.58900452, 1211.84777832, 39.29000092, 0.00000000
1, 2.4400, 244, -0.00067098, -1.01713502, -0.32565135, 0.50489944, -3.82011986, 2.45545983, 12.22280693, -61.39680099, 39.76766586, -0.76046258, 0.63955796, -9.05454826, 0.99684530, 0.00617490, -0.00608744, 0.07889373, 0.01208734, 1.03041863, -0.67419517, 87.58900452, 1211.84777832, 39.29000092, 0.00000000
1, 2.4500, 245, -0.00119007, -1.01866770, -0.32363731, -2.01413846, -4.26609564, 3.35028505, 12.07655048, -62.01251602, 39.91992188, -0.77947479, 0.59282625, -9.08310509, 0.99682665, 0.00637107, -0.00569560, 0.07914409, 0.01185805, 1.03211379, -0.67621541, 87.58900452, 1211.84777832, 39.29000092, 0.00000000
1, 2.4600, 246, -0.00630159, -1.01202297, -0.32444549, -4.27533245, -4.40733004, 3.56517434, 12.07655048, -62.01251602, 39.91992188, -0.79875481, 0.56142491, -9.16232681, 0.99677175, 0.00655673, -0.00544029, 0.07983425, 0.01618377, 1.02594566, -0.67540872, 87.58900452, 1211.84777832, 39.29000092, 0.00000000
1, 2.4700, 247, -0.01197258, -0.99860203, -0.33025718, -5.44037724, -3.82640338, 3.15907288, 12.25937271, -61.70465851, 39.71056747, -0.85209322, 0.51802379, -9.18917465, 0.99675143, 0.00704976, -0.00510158, 0.08006820, 0.02127917, 1.01311517, -0.66959417, 87.58900452, 1211.84777832, 39.29000092, 0.00000000
1, 2.4800, 248, -0.01648617, -0.97645384, -0.33550143, -5.40998077, -3.49946046, 2.05842042, 12.03998470, -62.14445114, 39.38702393, -0.90509003, 0.48604047, -9.21692181, 0.99672967, 0.00753193, -0.00486224, 0.08030947, 0.02516530, 0.99190885, -0.66434145, 87.58900452, 1211.84777832, 39.29000092, 0.00000000
1, 2.4900, 249, -0.01589509, -0.94724965, -0.34270078, -4.51505852, -3.90677166, 1.15062499, 12.14968109, -61.48476028, 39.34896088, -0.94882441, 0.46100089, -9.25130272, 0.99670333, 0.00792850, -0.00467747, 0.08060852, 0.02409845, 0.96354258, -0.65713274, 87.58900452, 1211.84777832, 39.29000092, 0.00000000
1, 2.5000, 250, -0.01531134, -0.92205024, -0.34525216, -3.32105613, -4.11044359, 0.52744895, 12.22280693, -60.78109741, 39.32992935, -0.98044443, 0.44099277, -9.28924084, 0.99667501, 0.00821611, -0.00452841, 0.08093876, 0.02313310, 0.93896478, -0.65457422, 87.58900452, 1211.84777832, 39.29000092, 0.00000000
1, 2.5100, 251, -0.01803751, -0.90004134, -0.34570876, -2.32024455, -3.46504688, 0.36217228, 12.22280693, -60.78109741, 39.32992935, -0.99499935, 0.45314062, -9.37635899, 0.99661171, 0.00833059, -0.00465068, 0.08169492, 0.02567797, 0.91737497, -0.65411186, 87.58900452, 1211.84777832, 39.29000092, 0.00000000
1, 2.5200, 252, -0.02581778, -0.88428771, -0.34072706, -1.41958785, -2.01789904, 0.44257569, 12.55188751, -62.54026413, 39.34896088, -1.00844002, 0.44160092, -9.39420319, 0.99659836, 0.00845500, -0.00456122, 0.08185049, 0.03359001, 0.90180969, -0.65908921, 87.58900452, 1211.84777832, 39.29000092, 0.00000000
1, 2.5300, 253, -0.04155759, -0.88085043, -0.34133586, -0.52218598, -0.64394653, 0.80270332, 12.47876072, -63.59576416, 39.19670486, -1.01352000, 0.43176425, -9.39750290, 0.99659592, 0.00850609, -0.00447954, 0.08187976, 0.04915629, 0.89852107, -0.65847915, 87.58900452, 1211.84777832, 39.29000092, 0.00000000
1, 2.5400, 254, -0.05584344, -0.88661277, -0.34301010, 0.77866578, -0.08851289, 1.03891814, 11.85716152, -62.84811401, 39.76766586, -1.00586593, 0.42178378, -9.39411545, 0.99659914, 0.00844679, -0.00438702, 0.08185139, 0.06327407, 0.90423375, -0.65680695, 87.58900452, 1211.84777832, 39.29000092, 0.00000000
1, 2.5500, 255, -0.06045952, -0.89562917, -0.34392515, 1.80254292, -0.59851557, 1.23600292, 12.29593849, -62.49628448, 39.31089783, -0.98779851, 0.40810812, -9.39423466, 0.99660075, 0.00829943, -0.00425519, 0.08185418, 0.06767297, 0.91300249, -0.65589797, 87.58900452, 1211.84777832, 39.29000092, 0.00000000
1, 2.5600, 256, -0.06036864, -0.90642613, -0.34550920, 3.08017826, -0.94730228, 1.13686907, 12.29593849, -62.49628448, 39.31089783, -0.94663852, 0.38142374, -9.45334911, 0.99656188, 0.00795847, -0.00399782, 0.08237179, 0.06728303, 0.92330539, -0.65432441, 87.58900452, 1211.84777832, 39.29000092, 0.00000000
1, 2.5700, 257, -0.05549859, -0.91718918, -0.34870234, 3.82369828, -1.45181918, 0.86031252, 12.47876072, -61.08895111, 39.52024841, -0.90796459, 0.36813956, -9.46177673, 0.99655885, 0.00763141, -0.00385506, 0.08244738, 0.06200533, 0.93329036, -0.65114689, 87.58900452, 1211.84777832, 39.29000092, 0.00000000
1, 2.5800, 258, -0.05488412, -0.92031014, -0.35330248, 3.19962311, -1.27919805, 0.49670672, 13.10035515, -62.89209366, 39.67250824, -0.87554932, 0.35886061, -9.47024822, 0.99655497, 0.00735591, -0.00375158, 0.08252277, 0.06120263, 0.93578470, -0.64655781, 87.58900452, 1211.84777832, 39.29000092, 0.00000000
1, 2.5900, 259, -0.05114125, -0.92387635, -0.35374871, 1.58117533, -0.51711941, 0.34189770, 12.25937271, -62.58424377, 39.57734680, -0.85958874, 0.35380900, -9.47301865, 0.99655420, 0.00722066, -0.00369633, 0.08254774, 0.05735087, 0.93896306, -0.64611816, 87.58900452, 1211.84777832, 39.29000092, 0.00000000
1, 2.6000, 260, -0.04298155, -0.92739731, -0.35688475, 0.19450657, 0.12385321, 0.35961637, 12.18624687, -62.18843079, 39.52024841, -0.85776937, 0.35090905, -9.47044373, 0.99655622, 0.00720701, -0.00366964, 0.08252560, 0.04912044, 0.94236219, -0.64298439, 87.58900452, 1211.84777832, 39.29000092, 0.00000000
1, 2.6100, 261, -0.04099181, -0.93323898, -0.36167398, -0.37227291, 1.18153107, 0.47147852, 12.18624687, -62.18843079, 39.52024841, -0.86008716, 0.36805341, -9.51505661, 0.99652350, 0.00721332, -0.00382321, 0.08291236, 0.04718758, 0.94824731, -0.63819414, 87.58900452, 1211.84777832, 39.29000092, 0.00000000
1, 2.6200, 262, -0.03944435, -0.93914050, -0.36892998, 0.06132220, 2.25994158, 0.84439027, 12.66158390, -63.37586975, 39.76766586, -0.86053371, 0.36843327, -9.49093533, 0.99654078, 0.00721774, -0.00382532, 0.08270252, 0.04587270, 0.95416182, -0.63093650, 87.58900452, 1211.84777832, 39.29000092, 0.00000000
1, 2.6300, 263, -0.03662677, -0.94202435, -0.37101212, 0.30359137, 2.63296843, 1.23821402, 12.29593849, -61.04496765, 39.36799240, -0.85876876, 0.36652255, -9.46178055, 0.99656200, 0.00720474, -0.00380560, 0.08244917, 0.04303716, 0.95702386, -0.62885481, 87.58900452, 1211.84777832, 39.29000092, 0.00000000
1, 2.6400, 264, -0.03746340, -0.94676620, -0.37665513, 0.29745364, 2.90311456, 1.50758696, 12.40563011, -61.74863815, 39.02541733, -0.85723907, 0.36307779, -9.42914772, 0.99658555, 0.00719499, -0.00377249, 0.08216565, 0.04382656, 0.96173930, -0.62321252, 87.58900452, 1211.84777832, 39.29000092, 0.00000000
1, 2.6500, 265, -0.03939776, -0.94862807, -0.38228947, 0.85593987, 2.45978451, 1.60202754, 12.36906433, -61.52874374, 39.88185501, -0.84994429, 0.35713947, -9.39999962, 0.99660712, 0.00713675, -0.00371380, 0.08191280, 0.04567662, 0.96351629, -0.61758000, 87.58900452, 1211.84777832, 39.29000092, 0.00000000
1, 2.6600, 266, -0.03680152, -0.95023715, -0.38618022, 1.65474069, 1.28128707, 1.64512002, 11.89372730, -63.81566238, 39.67250824, -0.85149711, 0.36521119, -9.43832588, 0.99657929, 0.00714322, -0.00378750, 0.08224552, 0.04300948, 0.96498919, -0.61369169, 87.58900452, 1211.84777832, 39.29000092, 0.00000000
1, 2.6700, 267, -0.03080365, -0.94465101, -0.38490546, 1.77789712, -0.10380480, 1.40468371, 11.89372730, -63.81566238, 39.67250824, -0.83390862, 0.35175952, -9.43328285, 0.99658436, 0.00700008, -0.00365758, 0.08220312, 0.03702936, 0.95931745, -0.61496758, 87.58900452, 1211.84777832, 39.29000092, 0.00000000
1, 2.6800, 268, -0.02652793, -0.93259025, -0.38600305, 1.16811109, 0.30737668, 1.15151942, 12.14968109, -61.92455292, 39.36799240, -0.82255054, 0.34216246, -9.42565632, 0.99659067, 0.00690842, -0.00356551, 0.08213779, 0.03255544, 0.94700253, -0.61387491, 87.58900452, 1211.84777832, 39.29000092, 0.00000000
1, 2.6900, 269, -0.02353005, -0.92302328, -0.38870165, 0.69690740, 1.68482363, 0.63699293, 12.22280693, -61.96853638, 38.98735428, -0.81638235, 0.34237856, -9.40730953, 0.99660420, 0.00685519, -0.00356187, 0.08197840, 0.02949629, 0.93731034, -0.61117852, 87.58900452, 1211.84777832, 39.29000092, 0.00000000
1, 2.7000, 270, -0.02296767, -0.91721535, -0.38917691, 0.43599990, 2.95416498, 0.54142940, 12.25937271, -61.66067886, 38.68284225, -0.81333005, 0.34809399, -9.37764263, 0.99662542, 0.00682549, -0.00360763, 0.08172011, 0.02899506, 0.93142289, -0.61070395, 87.58900452, 1211.84777832, 39.29000092, 0.00000000
1, 2.7100, 271, -0.02802916, -0.91200435, -0.38593337, 0.34926659, 4.06280136, 0.91656870, 12.69814968, -62.71617889, 39.48218536, -0.84251618, 0.37595361, -9.39255524, 0.99661243, 0.00705894, -0.00387166, 0.08184704, 0.03427102, 0.92631114, -0.61394471, 87.58900452, 1211.84777832, 39.29000092, 0.00000000
1, 2.7200, 272, -0.03227360, -0.91087437, -0.38021794, 0.04465957, 4.81981802, 1.70686162, 12.69814968, -62.71617889, 39.48218536, -0.84430850, 0.37763783, -9.34149456, 0.99664861, 0.00707506, -0.00388443, 0.08140277, 0.03886216, 0.92559022, -0.61965203, 87.58900452, 1211.84777832, 39.29000092, 0.00000000
1, 2.7300, 273, -0.02518944, -0.90976405, -0.37828648, -0.45903862, 5.10499620, 2.92730141, 12.58845234, -62.49628448, 39.53927994, -0.85143846, 0.36898693, -9.28359318, 0.99668944, 0.00714515, -0.00381065, 0.08089952, 0.03171368, 0.92457092, -0.62158263, 87.58900452, 1211.84777832, 39.29000092, 0.00000000
1, 2.7400, 274, -0.01238144, -0.90670884, -0.37249407, -0.33102635, 4.56775522, 4.37461472, 12.47876072, -62.27638626, 39.76766586, -0.85729730, 0.34491822, -9.22534752, 0.99673063, 0.00721494, -0.00360178, 0.08039433, 0.01857756, 0.92163730, -0.62737525, 87.58900452, 1211.84777832, 39.29000092, 0.00000000
1, 2.7500, 275, -0.00633077, -0.90450698, -0.37115067, -0.31033978, 3.83927011, 5.92370558, 11.82060146, -64.82717896, 39.46315384, -0.86294103, 0.30376977, -9.16821194, 0.99677092, 0.00729453, -0.00324419, 0.07989994, 0.01193403, 0.91952300, -0.62872082, 87.58900452, 1211.84777832, 39.29000092, 0.00000000
1, 2.7600, 276, -0.00592939, -0.90424675, -0.36788297, -0.33732629, 2.78818512, 7.23764133, 11.16243649, -60.95701218, 39.69153595, -0.87556016, 0.27249745, -9.16607761, 0.99677211, 0.00742617, -0.00298083, 0.07988315, 0.01072792, 0.91940677, -0.63199055, 87.58900452, 1211.84777832, 39.29000092, 0.00000000
1, 2.7700, 277, -0.01631183, -0.92101502, -0.36780891, 0.34784088, 3.21408081, 6.69957161, 11.16243649, -60.95701218, 39.69153595, -0.87455851, 0.22186653, -9.11158466, 0.99681079, 0.00745398, -0.00253617, 0.07941260, 0.02048838, 0.93628943, -0.63206571, 87.58900452, 1211.84777832, 39.29000092, 0.00000000
1, 2.7800, 278, -0.02525889, -0.94113916, -0.37017396, 0.71986777, 3.65253115, 4.17637491, 11.12587547, -61.00099564, 39.32992935, -0.86965054, 0.19632629, -9.06202793, 0.99684566, 0.00742999, -0.00230739, 0.07898334, 0.02880898, 0.95634228, -0.62970418, 87.58900452, 1211.84777832, 39.29000092, 0.00000000
1, 2.7900, 279, -0.02101102, -0.95830363, -0.37203518, -0.21372478, 4.57015800, 1.10474086, 11.63777828, -63.06801224, 39.61540985, -0.87397921, 0.20272294, -9.01562214, 0.99687713, 0.00746419, -0.00236300, 0.07857912, 0.02446136, 0.97350818, -0.62784332, 87.58900452, 1211.84777832, 39.29000092, 0.00000000
1, 2.8000, 280, 0.00119824, -0.96784359, -0.37481475, -1.37981522, 4.34241152, -1.28712904, 11.71090508, -63.55178452, 39.88185501, -0.88944012, 0.23055647, -8.98063850, 0.99689984, 0.00758040, -0.00261342, 0.07827255, 0.00262275, 0.98325360, -0.62505925, 87.58900452, 1211.84777832, 39.29000092, 0.00000000
1, 2.8100, 281, 0.01867248, -0.96395129, -0.37339604, -1.81447029, 4.26831722, -2.21900678, 12.03998470, -63.41984940, 40.01508331, -0.90885431, 0.31742534, -8.99916458, 0.99688447, 0.00768938, -0.00338364, 0.07842714, -0.01403195, 0.97968233, -0.62646931, 87.58900452, 1211.84777832, 39.29000092, 0.00000000
1, 2.8200, 282, 0.02710726, -0.95602089, -0.37552390, -2.56074405, 4.75224304, -1.73193514, 12.03998470, -63.41984940, 40.01508331, -0.93613786, 0.35092077, -8.96261215, 0.99690694, 0.00790497, -0.00369118, 0.07810589, -0.02118821, 0.97217077, -0.62432814, 87.58900452, 1211.84777832, 39.29000092, 0.00000000
1, 2.8300, 283, 0.02422305, -0.94216895, -0.37502533, -3.43802691, 6.05718422, -0.08461177, 11.23556709, -62.27638626, 39.46315384, -0.97297132, 0.37387532, -8.90836716, 0.99694073, 0.00821161, -0.00391210, 0.07763103, -0.01783264, 0.95889848, -0.62481427, 87.58900452, 1211.84777832, 39.29000092, 0.00000000
1, 2.8400, 284, 0.00950738, -0.93322533, -0.36798367, -4.42815781, 7.85785246, 1.62621379, 11.82060146, -61.92455292, 39.52024841, -1.02068830, 0.38754046, -8.83162403, 0.99698871, 0.00862020, -0.00405754, 0.07696062, -0.00282294, 0.95070314, -0.63184118, 87.58900452, 1211.84777832, 39.29000092, 0.00000000
1, 2.8500, 285, 0.00062235, -0.92543584, -0.36753258, -5.43445206, 7.79173756, 3.10448098, 12.11311531, -63.77168274, 39.78669739, -1.07863319, 0.38729692, -8.75058174, 0.99703836, 0.00912739, -0.00408788, 0.07625347, 0.00616358, 0.94387633, -0.63227427, 87.58900452, 1211.84777832, 39.29000092, 0.00000000
1, 2.8600, 286, 0.00179157, -0.92114300, -0.36013538, -5.04093170, 7.28718758, 4.78018713, 12.25937271, -62.80414200, 39.78669739, -1.13068128, 0.39052173, -8.71395111, 0.99705833, 0.00957943, -0.00414751, 0.07593261, 0.00488130, 0.94056737, -0.63965368, 87.58900452, 1211.84777832, 39.29000092, 0.00000000
1, 2.8700, 287, -0.00111357, -0.93391985, -0.35875106, -2.97258592, 6.78687906, 5.94108629, 12.25937271, -62.80414200, 39.78669739, -1.16407108, 0.36036739, -8.63052654, 0.99711120, 0.00989280, -0.00390006, 0.07520824, 0.00761509, 0.95404935, -0.64102513, 87.58900452, 1211.84777832, 39.29000092, 0.00000000
1, 2.8800, 288, -0.00768576, -0.95153415, -0.35753375, -0.45237035, 5.56985569, 6.01325846, 11.60121250, -63.50780487, 40.01508331, -1.17184591, 0.32509807, -8.55685139, 0.99715936, 0.00998593, -0.00359185, 0.07457008, 0.01358922, 0.97197402, -0.64223993, 87.58900452, 1211.84777832, 39.29000092, 0.00000000
1, 2.8900, 289, -0.00235960, -0.98328382, -0.35361102, 1.19672883, 3.59570146, 4.73622704, 11.49152088, -63.19995117, 39.53927994, -1.16213405, 0.29440683, -8.50539875, 0.99719405, 0.00992289, -0.00331401, 0.07412540, 0.00769068, 1.00364208, -0.64616746, 87.58900452, 1211.84777832, 39.29000092, 0.00000000
1, 2.9000, 290, 0.02223795, -0.99776345, -0.34421563, 0.29156011, 0.59027517, 3.39259410, 11.41839027, -63.63974380, 40.26249695, -1.16001582, 0.26506701, -8.48724556, 0.99720645, 0.00992393, -0.00305575, 0.07397013, -0.01741540, 1.01798797, -0.65556818, 87.58900452, 1211.84777832, 39.29000092, 0.00000000
1, 2.9100, 291, 0.04512170, -1.00199831, -0.33061177, -2.14808989, -2.02317953, 2.53651214, 11.41839027, -62.10047150, 40.31959152, -1.14138246, 0.30117691, -8.54387665, 0.99717087, 0.00973680, -0.00336277, 0.07446024, -0.04054138, 1.02226353, -0.66917229, 87.58900452, 1211.84777832, 39.29000092, 0.00000000
1, 2.9200, 292, 0.05375785, -0.98874313, -0.32989934, -4.53914165, -2.87764621, 2.22703338, 11.41839027, -62.10047150, 39.99604797, -1.18585956, 0.26980165, -8.56463051, 0.99715394, 0.01014367, -0.00312048, 0.07464242, -0.04884188, 1.00911522, -0.66988093, 87.58900452, 1211.84777832, 39.29000092, 0.00000000
1, 2.9300, 293, 0.04811900, -0.97699761, -0.34366098, -6.37400818, -0.63141447, 2.50839019, 11.34525871, -61.96853638, 39.99604797, -1.24967217, 0.24409296, -8.56442356, 0.99714863, 0.01071572, -0.00293832, 0.07464134, -0.04370531, 0.99837917, -0.65610063, 87.58900452, 1211.84777832, 39.29000092, 0.00000000
1, 2.9400, 294, 0.02249839, -0.96539772, -0.35114980, -6.43709803, 4.32559633, 2.61279821, 11.60121250, -61.79261780, 40.16733932, -1.31626558, 0.23585291, -8.51786423, 0.99717247, 0.01130175, -0.00290540, 0.07423531, -0.01835559, 0.98792791, -0.64858776, 87.58900452, 1211.84777832, 39.29000092, 0.00000000
1, 2.9500, 295, -0.00812847, -0.95796609, -0.34813881, -6.74119282, 8.04420567, 2.77979970, 11.60121250, -63.19995117, 40.47185135, -1.38753414, 0.23996744, -8.43634987, 0.99721783, 0.01192138, -0.00297890, 0.07352370, 0.01227231, 0.98169744, -0.65157092, 87.58900452, 1211.84777832, 39.29000092, 0.00000000
1, 2.9600, 296, -0.04739840, -0.95176244, -0.35276929, -7.34440804, 10.91764355, 3.07057357, 11.67433929, -63.33188629, 40.26249695, -1.45993054, 0.25359285, -8.37288952, 0.99725056, 0.01254438, -0.00313697, 0.07296801, 0.05173166, 0.97681475, -0.64690739, 87.58900452, 1211.84777832, 39.29000092, 0.00000000
1, 2.9700, 297, -0.06277204, -0.95644635, -0.35226312, -6.06324434, 11.02008629, 3.71920443, 11.19900227, -61.88057327, 40.12927628, -1.52583051, 0.26037422, -8.25998497, 0.99731439, 0.01311675, -0.00322503, 0.07198279, 0.06728560, 0.98268074, -0.64738250, 87.58900452, 1211.84777832, 39.29000092, 0.00000000
1, 2.9800, 298, -0.06593987, -0.96793717, -0.35148782, -4.05368614, 10.55183983, 3.93172908, 11.19900227, -61.88057327, 40.12927628, -1.57148397, 0.26356387, -8.14960575, 0.99737793, 0.01351523, -0.00326845, 0.07102044, 0.07051961, 0.99507636, -0.64813328, 87.58900452, 1211.84777832, 39.29000092, 0.00000000
1, 2.9900, 299, -0.07101785, -0.97517920, -0.34141085, -4.20525217, 9.90335464, 3.63730621, 11.74746990, -62.62821960, 39.84379578, -1.61832690, 0.26711056, -8.04640007, 0.99743593, 0.01392373, -0.00331581, 0.07012036, 0.07566303, 1.00309587, -0.65818852, 87.58900452, 1211.84777832, 39.29000092, 0.00000000
1, 3.0000, 300, -0.06206217, -0.96718299, -0.33940959, -5.87477446, 7.96730089, 3.70718169, 11.82060146, -62.23241043, 40.11024094, -1.68101680, 0.26278442, -7.96169710, 0.99747968, 0.01447449, -0.00330582, 0.06938180, 0.06669785, 0.99609214, -0.66016167, 87.58900452, 1211.84777832, 39.29000092, 0.00000000
1, 3.0100, 301, -0.04199933, -0.95470399, -0.35260832, -7.13894129, 5.38464260, 4.69387293, 11.60121250, -63.99157715, 40.60507202, -1.74860919, 0.24906264, -7.94425106, 0.99748170, 0.01507166, -0.00322500, 0.06922981, 0.04640271, 0.98480070, -0.64692891, 87.58900452, 1211.84777832, 39.29000092, 0.00000000
1, 3.0200, 302, -0.01938866, -0.93794537, -0.38584039, -8.98700047, 2.85491705, 6.36901760, 11.74746990, -64.43137360, 40.71926498, -1.84065747, 0.20084694, -7.89822245, 0.99749738, 0.01590321, -0.00285453, 0.06883334, 0.02324093, 0.96943402, -0.61365616, 87.58900452, 1211.84777832, 39.29000092, 0.00000000
1, 3.0300, 303, -0.01081111, -0.91419226, -0.39769915, -11.08362961, 1.53605258, 8.38678837, 11.74746990, -64.43137360, 40.71926498, -1.95344269, 0.12900268, -7.85765791, 0.99750566, 0.01692898, -0.00229091, 0.06848811, 0.01355894, 0.94752240, -0.60174119, 87.58900452, 1211.84777832, 39.29000092, 0.00000000
1, 3.0400, 304, -0.01858608, -0.88102847, -0.39286950, -11.34543705, 2.02043819, 10.13802814, 12.18624687, -64.47534943, 40.49088287, -2.06942439, 0.04291914, -7.80588770, 0.99751860, 0.01799078, -0.00160277, 0.06804868, 0.01991739, 0.91638440, -0.60650414, 87.58900452, 1211.84777832, 39.29000092, 0.00000000
1, 3.0500, 305, -0.03878711, -0.85270488, -0.38448730, -11.83248711, 4.17297268, 11.55587864, 11.27213287, -62.89209366, 39.95798874, -2.19161248, -0.04785696, -7.72889614, 0.99754322, 0.01910891, -0.00087230, 0.06739184, 0.03855004, 0.89013058, -0.61481178, 87.58900452, 1211.84777832, 39.29000092, 0.00000000
1, 3.0600, 306, -0.06664402, -0.82308680, -0.36257982, -12.76934624, 4.24712229, 11.82397938, 11.45495605, -62.49628448, 39.97701645, -2.32781434, -0.14242965, -7.69396591, 0.99753857, 0.02035020, -0.00012294, 0.06710336, 0.06478865, 0.86277443, -0.63663030, 87.58900452, 1211.84777832, 39.29000092, 0.00000000
1, 3.0700, 307, -0.09178148, -0.80915511, -0.35478547, -13.54332829, 2.07786322, 10.83151245, 11.08931065, -64.56330872, 40.68120193, -2.46614242, -0.23437770, -7.63951778, 0.99754250, 0.02160786, 0.00060673, 0.06664633, 0.08828788, 0.85127306, -0.64432073, 87.58900452, 1211.84777832, 39.29000092, 0.00000000
1, 3.0800, 308, -0.10463445, -0.79951346, -0.34971842, -14.07561016, -2.65527368, 8.27266979, 11.08931065, -64.56330872, 40.68120193, -2.60692549, -0.32121670, -7.63860941, 0.99751270, 0.02288381, 0.00128097, 0.06665619, 0.09958971, 0.84407783, -0.64927506, 87.58900452, 1211.84777832, 39.29000092, 0.00000000
1, 3.0900, 309, -0.09067968, -0.80169392, -0.34533557, -13.86982441, -9.07460403, 5.28939629, 11.08931065, -64.03556061, 40.30056381, -2.74164891, -0.40593889, -7.70804453, 0.99744105, 0.02410690, 0.00192548, 0.06727954, 0.08414596, 0.84865147, -0.65353966, 87.58900452, 1211.84777832, 39.29000092, 0.00000000
1, 3.1000, 310, -0.06539061, -0.81218374, -0.34095004, -14.15851688, -16.49445152, 2.39207029, 11.78403568, -63.85964203, 40.35765839, -2.87453127, -0.49363971, -7.85694456, 0.99731988, 0.02531825, 0.00257793, 0.06859665, 0.05736173, 0.86144900, -0.65780306, 87.58900452, 1211.84777832, 39.29000092, 0.00000000
1, 3.1100, 311, -0.01570284, -0.87117016, -0.33169198, -15.31661415, -25.12389755, -0.40497753, 10.97961807, -63.28790665, 39.65347290, -3.00606036, -0.57766259, -8.13379765, 0.99711674, 0.02652082, 0.00316639, 0.07102776, 0.00609508, 0.92281878, -0.66692686, 87.58900452, 1211.84777832, 39.29000092, 0.00000000
1, 3.1200, 312, -0.00062583, -0.89241081, -0.30020347, -13.38793182, -33.40292740, -7.45805359, 10.43115044, -63.46382904, 39.25379944, -3.11900854, -0.64342928, -8.47608757, 0.99686927, 0.02755507, 0.00358635, 0.07402422, -0.01027909, 0.94612563, -0.69829309, 87.58900452, 1211.84777832, 39.29000092, 0.00000000
1, 3.1300, 313, -0.00912361, -0.88231850, -0.27677840, -6.76326561, -38.27667999, -19.07700157, 10.43115044, -63.46382904, 39.25379944, -3.16032386, -0.62267637, -8.90614700, 0.99657583, 0.02791362, 0.00327438, 0.07776126, -0.00197714, 0.93732274, -0.72164601, 87.58900452, 1211.84777832, 39.29000092, 0.00000000
1, 3.1400, 314, 0.00059937, -0.89957440, -0.26359624, 4.38990355, -41.28425598, -26.13536835, 11.38182449, -61.57272339, 39.42508698, -3.08745098, -0.54891294, -9.38639927, 0.99626344, 0.02724098, 0.00256816, 0.08191817, -0.01072101, 0.95406222, -0.73486674, 87.58900452, 1211.84777832, 39.29000092, 0.00000000
1, 3.1500, 315, 0.00324108, -0.92276859, -0.24373418, 12.75896931, -44.08389282, -30.42105103, 11.01617908, -62.45230865, 39.19670486, -2.92932868, -0.44584802, -9.90501499, 0.99592495, 0.02580058, 0.00166834, 0.08640016, -0.01172896, 0.97502518, -0.75486296, 87.58900452, 1211.84777832, 39.29000092, 0.00000000
1, 3.1600, 316, 0.00293290, -0.99217594, -0.21709737, 20.62869835, -45.26564407, -32.06960297, 11.38182449, -62.18843079, 38.77800369, -2.68057728, -0.32414743, -10.46304703, 0.99555194, 0.02355064, 0.00068343, 0.09122104, -0.00941555, 1.04077005, -0.78169918, 87.58900452, 1211.84777832, 39.29000092, 0.00000000
1, 3.1700, 317, -0.00337932, -1.06697595, -0.20228758, 23.35222244, -45.38911819, -30.55121994, 10.94305325, -60.60517502, 38.24510574, -2.41803646, -0.22055577, -10.98796940, 0.99517894, 0.02118704, -0.00010467, 0.09576014, -0.00116390, 1.11087775, -0.79673707, 87.58900452, 1211.84777832, 39.29000092, 0.00000000
1, 3.1800, 318, -0.02755680, -1.10831022, -0.19398668, 30.25077438, -42.99051285, -29.11563492, 10.94305325, -60.60517502, 38.24510574, -2.08904171, -0.11812630, -11.48126030, 0.99481714, 0.01824098, -0.00079789, 0.10002734, 0.02486081, 1.14699841, -0.80525959, 87.58900452, 1211.84777832, 39.29000092, 0.00000000
1, 3.1900, 319, -0.03423779, -1.12338948, -0.17739895, 31.11668777, -42.23703766, -22.24690437, 11.93029308, -59.98946762, 37.86446381, -1.75365806, -0.07336917, -11.94033337, 0.99445856, 0.01528654, -0.00095495, 0.10400812, 0.03270403, 1.15619433, -0.82206023, 87.58900452, 1211.84777832, 39.29000092, 0.00000000
1, 3.2000, 320, -0.05703618, -1.10986960, -0.17822796, 26.79366875, -35.76991272, -14.66209126, 11.71090508, -59.85753250, 38.24510574, -1.46614850, -0.07205981, -12.31294346, 0.99415028, 0.01278785, -0.00074694, 0.10724322, 0.05583006, 1.13728786, -0.82139438, 87.58900452, 1211.84777832, 39.29000092, 0.00000000
1, 3.2100, 321, -0.07108223, -1.15122795, -0.17849328, 22.31942749, -30.18617821, -9.82002163, 11.52808189, -61.74863815, 37.99768829, -1.20936954, -0.08986393, -12.65295124, 0.99385363, 0.01057568, -0.00038354, 0.11019562, 0.06959613, 1.17408752, -0.82124352, 87.58900452, 1211.84777832, 39.29000092, 0.00000000
1, 3.2200, 322, -0.06242611, -1.21025693, -0.16983753, 17.57234383, -25.87475395, -3.89643407, 11.38182449, -61.08895111, 37.61705017, -1.02049422, -0.14894626, -12.89866734, 0.99363005, 0.00899500, 0.00029123, 0.11233148, 0.06030846, 1.22920358, -0.82998025, 87.58900452, 1211.84777832, 39.29000092, 0.00000000
1, 3.2300, 323, -0.07271290, -1.17615759, -0.15887494, 11.61351490, -23.04500961, 4.98802328, 11.27213287, -61.66067886, 37.50285721, -0.89384216, -0.27970928, -13.08873177, 0.99344862, 0.00802750, 0.00153594, 0.11398761, 0.06880206, 1.19251871, -0.84098315, 87.58900452, 1211.84777832, 39.29000092, 0.00000000
1, 3.2400, 324, -0.10082179, -1.10064101, -0.20334712, 9.05310535, -20.78443909, 13.56886292, 11.27213287, -61.66067886, 37.50285721, -0.79511088, -0.48177662, -13.22805882, 0.99330860, 0.00737659, 0.00337702, 0.11520554, 0.09381846, 1.11515749, -0.79652232, 87.58900452, 1211.84777832, 39.29000092, 0.00000000
1, 3.2500, 325, -0.13204949, -1.00987005, -0.20414510, 9.50005627, -20.83201790, 18.83998680, 11.49152088, -62.49628448, 37.25543976, -0.69246614, -0.73289537, -13.34883308, 0.99317980, 0.00674513, 0.00564988, 0.11626111, 0.12093043, 1.02267933, -0.79571009, 87.58900452, 1211.84777832, 39.29000092, 0.00000000
1, 3.2600, 326, -0.13382448, -0.97705066, -0.21275975, 11.51443100, -20.04007149, 21.76847267, 11.12587547, -61.88057327, 37.14124680, -0.55453140, -1.01141739, -13.48793411, 0.99302554, 0.00584198, 0.00819674, 0.11746927, 0.11806555, 0.98772639, -0.78705788, 87.58900452, 1211.84777832, 39.29000092, 0.00000000
1, 3.2700, 327, -0.12195127, -0.97604257, -0.23517610, 12.61631393, -22.38727951, 25.24899673, 10.24832726, -60.82507324, 36.68447876, -0.42015141, -1.32736540, -13.59981728, 0.99288744, 0.00501194, 0.01106753, 0.11843579, 0.10091650, 0.98430568, -0.76456702, 87.58900452, 1211.84777832, 39.29000092, 0.00000000
1, 3.2800, 328, -0.09051719, -0.96292323, -0.24747685, 18.53634644, -26.39471817, 27.60758972, 10.02893925, -60.95701218, 36.95092773, -0.22378094, -1.67928207, -13.73865604, 0.99270964, 0.00369132, 0.01431520, 0.11962068, 0.06356527, 0.96819371, -0.75214398, 87.58900452, 1211.84777832, 39.29000092, 0.00000000
1, 3.2900, 329, -0.06859058, -0.89903754, -0.22579525, 21.46788216, -30.39742088, 28.23518181, 10.02893925, -60.95701218, 36.95092773, 0.00564252, -2.05065322, -13.91256714, 0.99248010, 0.00211835, 0.01776860, 0.12109171, 0.03522192, 0.90043902, -0.77364463, 87.58900452, 1211.84777832, 39.29000092, 0.00000000
1, 3.3000, 330, -0.05430111, -0.85226750, -0.19868916, 17.78334427, -28.35589409, 27.55108833, 10.35801888, -62.80414200, 37.17930984, 0.19798237, -2.40784836, -14.07304573, 0.99225223, 0.00085954, 0.02106421, 0.12243873, 0.01461479, 0.84999192, -0.80051851, 87.58900452, 1211.84777832, 39.29000092, 0.00000000
1, 3.3100, 331, -0.05437700, -0.81592506, -0.19892174, 14.14692307, -22.99558449, 26.46200371, 9.48047066, -62.89209366, 36.72254181, 0.35861516, -2.72755289, -14.22495842, 0.99202836, -0.00015768, 0.02400425, 0.12370798, 0.00876367, 0.81075275, -0.80002260, 87.58900452, 1211.84777832, 39.29000092, 0.00000000
1, 3.3200, 332, -0.03266402, -0.83528376, -0.17245480, 10.61950302, -16.47115135, 24.53572655, 9.11482811, -62.36434555, 36.68447876, 0.47133470, -3.01464796, -14.28985786, 0.99189645, -0.00080806, 0.02661165, 0.12422809, -0.01807022, 0.82770437, -0.82622755, 87.58900452, 1211.84777832, 39.29000092, 0.00000000
1, 3.3300, 333, -0.08202972, -0.86051255, -0.14714478, 7.29479980, -8.40681267, 25.10216522, 9.26108551, -62.36434555, 36.18964767, 0.54310405, -3.27932549, -14.27917385, 0.99184573, -0.00114453, 0.02898023, 0.12410018, 0.02651472, 0.85147786, -0.85127127, 87.58900452, 1211.84777832, 39.29000092, 0.00000000
1, 3.3400, 334, -0.09106047, -0.86823523, -0.15902157, 5.45562315, -0.24369876, 24.52354431, 9.26108551, -62.36434555, 36.18964767, 0.58835620, -3.51068258, -14.19491005, 0.99187809, -0.00130790, 0.03103065, 0.12334168, 0.03128958, 0.85823327, -0.83913988, 87.58900452, 1211.84777832, 39.29000092, 0.00000000
1, 3.3500, 335, -0.13163237, -0.88474995, -0.14675266, 3.95148516, 3.17607880, 23.49261093, 9.33421421, -63.41984940, 36.72254181, 0.61509025, -3.72072768, -14.08287811, 0.99194181, -0.00134477, 0.03287610, 0.12234782, 0.06806304, 0.87419748, -0.85116845, 87.58900452, 1211.84777832, 39.29000092, 0.00000000
1, 3.3600, 336, -0.15746836, -0.90651470, -0.13983724, 4.75604725, 3.86320210, 20.65690804, 9.62673092, -63.55178452, 36.76060867, 0.69165206, -3.90627480, -14.01915455, 0.99195623, -0.00182803, 0.03456286, 0.12175792, 0.09055045, 0.89526522, -0.85785735, 87.58900452, 1211.84777832, 39.29000092, 0.00000000
1, 3.3700, 337, -0.13717222, -0.93060464, -0.11631194, 8.15442562, 3.12803197, 17.88883591, 9.66329384, -63.68372726, 37.00802231, 0.76189375, -4.06402493, -13.92485332, 0.99200833, -0.00229750, 0.03600105, 0.12090547, 0.06730340, 0.91786206, -0.88116252, 87.58900452, 1211.84777832, 39.29000092, 0.00000000
1, 3.3800, 338, -0.09486917, -0.93797874, -0.08042674, 12.33839989, -0.21919943, 15.73142242, 8.82231140, -64.34340668, 36.64641571, 0.87831932, -4.21293545, -13.86753082, 0.99202049, -0.00316632, 0.03741128, 0.12035704, 0.02238554, 0.92347395, -0.91683698, 87.58900452, 1211.84777832, 39.29000092, 0.00000000
1, 3.3900, 339, -0.06660813, -0.93038630, -0.04781829, 13.46334457, -4.08839035, 14.66224957, 8.82231140, -64.34340668, 36.64641571, 1.01080382, -4.36489487, -13.85005283, 0.99198663, -0.00415876, 0.03886515, 0.12014481, -0.00850739, 0.91366100, -0.94921577, 87.58900452, 1211.84777832, 39.29000092, 0.00000000
1, 3.4000, 340, -0.03952008, -0.94769353, -0.03853904, 12.97654915, -6.39376736, 13.73635578, 8.27384281, -64.65126801, 36.34190369, 1.14161134, -4.51584482, -13.85803413, 0.99192381, -0.00512911, 0.04030919, 0.12015028, -0.03822850, 0.92867708, -0.95825219, 87.58900452, 1211.84777832, 39.29000092, 0.00000000
1, 3.4100, 341, -0.02805955, -0.97353190, -0.04635276, 13.71177292, -7.87527275, 13.38654995, 8.34697151, -66.67430878, 37.55995178, 1.33542585, -4.64382505, -13.92094898, 0.99180496, -0.00664881, 0.04162366, 0.12060821, -0.05222776, 0.95194131, -0.95018446, 87.58900452, 1211.84777832, 39.29000092, 0.00000000
1, 3.4200, 342, -0.02430657, -0.97894764, -0.03364322, 14.47666740, -7.43935776, 12.26836205, 9.33421421, -65.79473114, 37.14124680, 1.48322070, -4.78429508, -13.94377327, 0.99172342, -0.00777036, 0.04299632, 0.12073012, -0.05820967, 0.95409799, -0.96263617, 87.58900452, 1211.84777832, 39.29000092, 0.00000000
1, 3.4300, 343, -0.04326828, -0.97209299, -0.02564755, 13.07142258, -6.06369734, 9.29569244, 8.78574562, -65.75074005, 37.38866425, 1.61670196, -4.89211226, -13.96430588, 0.99165416, -0.00880301, 0.04407143, 0.12083964, -0.04136214, 0.94482613, -0.97039139, 87.58900452, 1211.84777832, 39.29000092, 0.00000000
1, 3.4400, 344, -0.06651249, -0.96701247, -0.03118795, 10.17608070, -3.40150595, 5.63392019, 8.78574562, -65.75074005, 37.38866425, 1.71969867, -4.95657873, -13.97316074, 0.99161363, -0.00962219, 0.04473855, 0.12086530, -0.01952456, 0.93772763, -0.96467334, 87.58900452, 1211.84777832, 39.29000092, 0.00000000
1, 3.4500, 345, -0.07751073, -0.97059721, -0.05228709, 7.31278896, -0.50452554, 3.38325024, 8.38353729, -65.97064209, 36.79867172, 1.79152739, -4.99035215, -13.96333408, 0.99160564, -0.01021161, 0.04510563, 0.12074608, -0.00928952, 0.93989307, -0.94346529, 87.58900452, 1211.84777832, 39.29000092, 0.00000000
1, 3.4600, 346, -0.09285265, -0.96996534, -0.05445008, 6.99500608, 2.28644609, 2.54640579, 8.34697151, -64.21147156, 36.74157333, 1.99503446, -4.98547459, -13.98270893, 0.99156725, -0.01197017, 0.04527983, 0.12083440, 0.00577071, 0.93751842, -0.94122159, 87.58900452, 1211.84777832, 39.29000092, 0.00000000
1, 3.4700, 347, -0.10950214, -0.98063290, -0.05658529, 8.65488529, 4.93556738, 4.00328588, 8.12758541, -64.78320312, 36.64641571, 2.07286596, -5.00793219, -13.91868305, 0.99161816, -0.01264512, 0.04554912, 0.12024502, 0.02237477, 0.94512212, -0.93897867, 87.58900452, 1211.84777832, 39.29000092, 0.00000000
1, 3.4800, 348, -0.13591115, -1.03403533, -0.05464128, 7.68364954, 7.28489161, 7.87014198, 8.49323082, -65.70676422, 37.17930984, 2.13617396, -5.05970478, -13.82055569, 0.99169499, -0.01317734, 0.04605219, 0.11935993, 0.04811223, 0.99727893, -0.94081843, 87.58900452, 1211.84777832, 39.29000092, 0.00000000
1, 3.4900, 349, -0.15838413, -1.06400645, -0.04220963, 9.75488091, 7.55704498, 12.19378948, 8.49323082, -65.70676422, 37.17930984, 2.21759725, -5.15180206, -13.70518780, 0.99177128, -0.01383196, 0.04691992, 0.11830901, 0.06922625, 1.02602410, -0.95308322, 87.58900452, 1211.84777832, 39.29000092, 0.00000000
1, 3.5000, 350, -0.19740640, -1.11201060, -0.02276514, 11.40191460, 6.31111908, 15.74853134, 8.63948822, -65.09105682, 37.04608917, 2.31522393, -5.28177691, -13.58980179, 0.99182922, -0.01458917, 0.04813065, 0.11724146, 0.10624008, 1.07242358, -0.97228312, 87.58900452, 1211.84777832, 39.29000092, 0.00000000
1, 3.5100, 351, -0.21695693, -1.14414871, -0.03699335, 12.45216274, 7.79389906, 17.93862343, 8.31040859, -65.48686981, 37.31253433, 2.45297241, -5.42981005, -13.49194527, 0.99185401, -0.01566981, 0.04953911, 0.11630200, 0.12331185, 1.10265827, -0.95774686, 87.58900452, 1211.84777832, 39.29000092, 0.00000000
1, 3.5200, 352, -0.23756406, -1.16276157, -0.03575191, 12.23240757, 9.72488308, 18.33146095, 7.90819979, -66.01461792, 37.21737671, 2.55235600, -5.57427263, -13.33602142, 0.99194050, -0.01645003, 0.05086765, 0.11487442, 0.14136592, 1.11905909, -0.95865005, 87.58900452, 1211.84777832, 39.29000092, 0.00000000
1, 3.5300, 353, -0.25964436, -1.20502424, -0.02851165, 10.51088428, 14.38494968, 17.96008492, 8.05445671, -66.05860138, 37.02705383, 2.62787867, -5.70104694, -13.13783073, 0.99207538, -0.01706424, 0.05201098, 0.11309372, 0.16109847, 1.15983248, -0.96559387, 87.58900452, 1211.84777832, 39.29000092, 0.00000000
1, 3.5400, 354, -0.29271466, -1.24452758, 0.00675070, 5.60827589, 19.51439476, 17.80167389, 8.01789188, -68.16960144, 37.52188873, 2.64702868, -5.81059313, -12.89367580, 0.99226594, -0.01723258, 0.05294140, 0.11094370, 0.19216868, 1.19861627, -1.00062311, 87.58900452, 1211.84777832, 39.29000092, 0.00000000
1, 3.5500, 355, -0.31161612, -1.28297329, 0.02251436, 3.01163936, 25.15626335, 17.84034157, 8.01789188, -68.16960144, 37.52188873, 2.63178062, -5.90308809, -12.59678078, 0.99251342, -0.01714826, 0.05368308, 0.10835657, 0.20934853, 1.23718166, -1.01621675, 87.58900452, 1211.84777832, 39.29000092, 0.00000000
1, 3.5600, 356, -0.31534651, -1.31814086, 0.04963617, 1.80334687, 31.40372467, 18.23905754, 8.52979469, -68.47746277, 37.57898331, 2.61244154, -5.98026228, -12.27154160, 0.99278682, -0.01706034, 0.05428484, 0.10552923, 0.21166259, 1.27276778, -1.04321086, 87.58900452, 1211.84777832, 39.29000092, 0.00000000
1, 3.5700, 357, -0.29430097, -1.33842111, 0.07987373, 0.40454003, 35.40373230, 19.57549095, 8.60292530, -67.24604034, 37.67414474, 2.55449104, -6.05732059, -11.87250042, 0.99312335, -0.01667681, 0.05484116, 0.10208030, 0.18928790, 1.29369569, -1.07333815, 87.58900452, 1211.84777832, 39.29000092, 0.00000000
1, 3.5800, 358, -0.24916616, -1.34751034, 0.09528578, -1.74370372, 35.14089203, 22.05508232, 8.27384281, -68.47746277, 37.54092026, 2.47371149, -6.15824842, -11.46920109, 0.99344337, -0.01608050, 0.05558743, 0.09859945, 0.14258875, 1.30403566, -1.08863914, 87.58900452, 1211.84777832, 39.29000092, 0.00000000
1, 3.5900, 359, -0.20489937, -1.33800101, 0.10186808, -2.51010895, 32.17564774, 23.59471321, 7.90819979, -67.55389404, 37.76930618, 2.38817668, -6.28242445, -11.08955574, 0.99372011, -0.01541705, 0.05653932, 0.09532090, 0.09629611, 1.29602587, -1.09506643, 87.58900452, 1211.84777832, 39.29000092, 0.00000000
1, 3.6000, 360, -0.18099941, -1.32113385, 0.08058906, -3.36603332, 29.88972092, 23.40864563, 7.90819979, -67.55389404, 37.76930618, 2.29684591, -6.41138935, -10.73246861, 0.99396449, -0.01469460, 0.05753591, 0.09224059, 0.07017631, 1.28068066, -1.07360530, 87.58900452, 1211.84777832, 39.29000092, 0.00000000
1, 3.6100, 361, -0.14709421, -1.29318941, 0.00497707, -8.11755466, 27.00330353, 21.34099770, 8.01789188, -67.99369049, 37.55995178, 2.18186831, -6.52116776, -10.44256783, 0.99415696, -0.01375452, 0.05836074, 0.08976030, 0.03416181, 1.25468779, -0.99783319, 87.58900452, 1211.84777832, 39.29000092, 0.00000000
1, 3.6200, 362, -0.14797190, -1.26168454, -0.17218673, -6.94721556, 22.83729553, 18.49003601, 7.76194048, -70.10469055, 38.26413727, 2.06720448, -6.62429476, -10.16953754, 0.99433148, -0.01281798, 0.05913503, 0.08742893, 0.03328475, 1.22517180, -0.82054341, 87.58900452, 1211.84777832, 39.29000092, 0.00000000
1, 3.6300, 363, -0.16902635, -1.21520233, -0.31180295, -3.09818459, 17.48305321, 17.18794441, 7.90819979, -70.50050354, 37.95962524, 1.99940896, -6.73173475, -9.94953823, 0.99445194, -0.01226101, 0.05999196, 0.08553376, 0.05251462, 1.18017793, -0.68076849, 87.58900452, 1211.84777832, 39.29000092, 0.00000000
1, 3.6400, 364, -0.16525669, -1.15722752, -0.37854445, -1.20853937, 7.11208439, 14.25706482, 7.43286037, -69.57693481, 38.18800735, 1.96814227, -6.84424782, -9.83670807, 0.99448258, -0.01196370, 0.06093308, 0.08454916, 0.04682695, 1.12295842, -0.61382633, 87.58900452, 1211.84777832, 39.29000092, 0.00000000
1, 3.6500, 365, -0.12982833, -1.07654452, -0.45446935, -0.82312691, -4.56862259, 12.00638580, 7.43286037, -69.57693481, 38.18800735, 1.96063423, -6.97259331, -9.84222031, 0.99441373, -0.01179857, 0.06204173, 0.08457615, 0.00929817, 1.04255879, -0.53765815, 87.58900452, 1211.84777832, 39.29000092, 0.00000000
1, 3.6600, 366, -0.03767224, -0.99560058, -0.45805159, -0.82941884, -14.23178196, 12.13723755, 6.92095757, -69.13714600, 37.76930618, 1.94583869, -7.08832073, -9.97126770, 0.99425912, -0.01151167, 0.06304787, 0.08568153, -0.08523405, 0.96164906, -0.53378558, 87.58900452, 1211.84777832, 39.29000092, 0.00000000
1, 3.6700, 367, 0.05990706, -0.88537550, -0.37850523, -5.59921789, -18.74846458, 11.12522411, 6.62844086, -69.70887756, 37.55995178, 1.91503263, -7.25349283, -10.11724567, 0.99406451, -0.01103575, 0.06447174, 0.08693310, -0.18512683, 0.85193008, -0.61305958, 87.58900452, 1211.84777832, 39.29000092, 0.00000000
1, 3.6800, 368, 0.05445282, -0.73398983, -0.36720282, -11.62400055, -19.48775291, 5.13391447, 6.59187746, -71.73191833, 37.69317627, 1.82953787, -7.36431313, -10.29251480, 0.99387825, -0.01010804, 0.06538356, 0.08848064, -0.18202357, 0.70171714, -0.62410122, 87.58900452, 1211.84777832, 39.29000092, 0.00000000
1, 3.6900, 369, -0.03232335, -0.68832886, -0.39760715, -14.32306671, -14.54654217, -2.47082162, 6.77470016, -70.14867401, 37.21737671, 1.71356547, -7.38748217, -10.44649982, 0.99375546, -0.00899587, 0.06550704, 0.08987805, -0.09616932, 0.65784216, -0.59363443, 87.58900452, 1211.84777832, 39.29000092, 0.00000000
1, 3.7000, 370, -0.17051689, -0.64196455, -0.47881287, -16.70119667, -3.46502113, -8.68180847, 6.77470016, -70.14867401, 37.21737671, 1.55887377, -7.31633043, -10.51633263, 0.99375057, -0.00767182, 0.06477339, 0.09058403, 0.04254243, 0.61400533, -0.51257002, 87.58900452, 1211.84777832, 39.29000092, 0.00000000
1, 3.7100, 371, -0.25043657, -0.66169697, -0.55007166, -15.32307339, 6.06097078, -14.51511383, 6.77470016, -69.88479614, 37.04608917, 1.34494078, -7.17588282, -10.54078388, 0.99381959, -0.00591603, 0.06338755, 0.09093826, 0.12467678, 0.63660967, -0.44167092, 87.58900452, 1211.84777832, 39.29000092, 0.00000000
1, 3.7200, 372, -0.26216480, -0.73254508, -0.60079867, -14.07317734, 12.76548100, -9.36816597, 6.70156956, -69.18112183, 37.00802231, 1.18976545, -7.04514313, -10.45774174, 0.99396169, -0.00472058, 0.06212716, 0.09032201, 0.13877210, 0.71096289, -0.39132410, 87.58900452, 1211.84777832, 39.29000092, 0.00000000
1, 3.7300, 373, -0.22531654, -0.82853222, -0.63985258, -9.24310970, 13.58873272, 2.51729894, 7.06721497, -70.23662567, 37.12221527, 1.07436156, -7.02362347, -10.32502460, 0.99408138, -0.00380839, 0.06184516, 0.08923608, 0.10305810, 0.80924523, -0.35245812, 87.58900452, 1211.84777832, 39.29000092, 0.00000000
1, 3.7400, 374, -0.16603671, -0.95007914, -0.69632119, -4.31980610, 9.24416256, 13.55554295, 7.17690897, -71.81987762, 36.83673477, 1.00835264, -7.12050867, -10.19397545, 0.99413359, -0.00323100, 0.06263047, 0.08812276, 0.04287645, 0.93223560, -0.29590496, 87.58900452, 1211.84777832, 39.29000092, 0.00000000
1, 3.7500, 375, -0.07691518, -1.10562408, -0.69064772, -2.26731753, 3.85580111, 24.08843422, 7.17690897, -71.81987762, 36.83673477, 0.96497875, -7.33457232, -10.07738400, 0.99410790, -0.00275368, 0.06445115, 0.08710893, -0.04921427, 1.08865023, -0.30122024, 87.58900452, 1211.84777832, 39.29000092, 0.00000000
1, 3.7600, 376, 0.02119333, -1.27279913, -0.58477730, 0.36322066, 0.87693310, 30.22290230, 6.99408627, -70.80835724, 37.08415222, 0.94461977, -7.60066700, -9.99993515, 0.99401814, -0.00241742, 0.06674209, 0.08641627, -0.15181471, 1.25635958, -0.40651780, 87.58900452, 1211.84777832, 39.29000092, 0.00000000
1, 3.7700, 377, -0.02974385, -1.33748102, -0.47986165, 6.33077049, -0.64590764, 21.17253304, 6.62844086, -71.77590179, 37.38866425, 0.99519295, -7.80237007, -9.93134022, 0.99395204, -0.00274306, 0.06852797, 0.08576634, -0.10497615, 1.32067978, -0.51087916, 87.58900452, 1211.84777832, 39.29000092, 0.00000000
1, 3.7800, 378, -0.17860931, -1.29654181, -0.43519533, 8.45956516, 7.67553902, -15.87231445, 6.22623205, -70.45652008, 36.81770325, 1.07561111, -7.62719822, -9.90743732, 0.99406892, -0.00358756, 0.06706808, 0.08553404, 0.04383218, 1.27844000, -0.55551428, 87.58900452, 1211.84777832, 39.29000092, 0.00000000
1, 3.7900, 379, -0.22943434, -1.27957428, -0.40750647, 0.20097904, 16.12879753, -56.52130890, 6.73813486, -69.92877197, 36.93189621, 1.08461034, -7.04053783, -9.94368267, 0.99436349, -0.00409026, 0.06198658, 0.08591974, 0.10269058, 1.26069367, -0.58424455, 87.58900452, 1211.84777832, 39.29000092, 0.00000000
1, 3.8000, 380, -0.24510944, -1.29583132, -0.36465687, -13.41829014, 19.77827454, -65.91278076, 7.65224838, -69.92877197, 37.00802231, 0.95765531, -6.35307264, -9.98432255, 0.99468160, -0.00349072, 0.05592658, 0.08642136, 0.12999988, 1.27818072, -0.62853312, 87.58900452, 1211.84777832, 39.29000092, 0.00000000
1, 3.8100, 381, -0.27173871, -1.23312974, -0.33009911, -29.31069183, 17.34430504, -58.90157318, 7.65224838, -70.32457733, 37.00802231, 0.67631257, -5.74028349, -10.05671215, 0.99491048, -0.00148311, 0.05039553, 0.08724287, 0.16778463, 1.21940601, -0.66438287, 87.58900452, 1211.84777832, 39.29000092, 0.00000000
1, 3.8200, 382, -0.24849787, -1.12360215, -0.30739900, -35.36479950, 13.18094063, -51.62284470, 7.90819979, -69.09316254, 36.72254181, 0.33277425, -5.20997715, -10.12772846, 0.99507511, 0.00112200, 0.04552842, 0.08804300, 0.15444946, 1.11559570, -0.68813199, 87.58900452, 1211.84777832, 39.29000092, 0.00000000
1, 3.8300, 383, -0.21956535, -0.96634209, -0.29644814, -25.21622849, 18.97488022, -59.07318115, 8.42010212, -68.43347931, 36.37996674, 0.08586796, -4.59008074, -10.16794968, 0.99526930, 0.00280285, 0.03995408, 0.08851468, 0.13556191, 0.96343791, -0.70000792, 87.58900452, 1211.84777832, 39.29000092, 0.00000000
1, 3.8400, 384, -0.08197171, -0.84478879, -0.28862780, -13.70721149, 17.60154533, -56.67631149, 8.93200493, -66.54237366, 35.96126175, -0.04624649, -3.99757886, -10.20882988, 0.99542689, 0.00350490, 0.03470416, 0.08893090, 0.00840323, 0.84486270, -0.70865798, 87.58900452, 1211.84777832, 39.29000092, 0.00000000
1, 3.8500, 385, 0.06169242, -0.76642466, -0.27769706, -7.29360008, 14.14529037, -48.91109085, 9.04169655, -64.82717896, 36.30384064, -0.11425956, -3.48999667, -10.25245380, 0.99553525, 0.00371348, 0.03024039, 0.08933895, -0.12579411, 0.76806617, -0.72024196, 87.58900452, 1211.84777832, 39.29000092, 0.00000000
