SensorId, TimeStamp (s), FrameNumber, AccX (g), AccY (g), AccZ (g), GyroX (deg/s), GyroY (deg/s), GyroZ (deg/s), MagX (uT), MagY (uT), MagZ (uT), EulerX (deg), EulerY (deg), EulerZ (deg), QuatW, QuatX, QuatY, QuatZ, LinAccX (g), LinAccY (g), LinAccZ (g), Pressure (kPa), Altitude (m), Temperature (degC), HeaveMotion (m)
1, -0.0001, 0, 0.01240369, -0.87244040, -0.50098974, -0.39517593, 0.25968283, 0.72792792, 14.34354877, -61.44078064, 41.61376953, -0.28391334, -0.10194454, -1.78082490, 0.99987584, 0.00249113, 0.00085102, 0.01554215, -0.01415199, 0.87736982, -0.49899656, 87.59200287, 1211.56689453, 38.09000015, 0.00000000
1, 0.0099, 1, 0.01085474, -0.87278050, -0.50017834, -0.48537236, 0.34502980, 0.71241993, 14.59950256, -61.00099564, 41.36635590, -0.29791892, -0.10644094, -1.82266903, 0.99986970, 0.00261427, 0.00088740, 0.01590747, -0.01268275, 0.87782723, -0.49980721, 87.59200287, 1211.56689453, 38.09000015, 0.00000000
1, 0.0199, 2, 0.01038949, -0.87392420, -0.50157619, -0.55302465, 0.19324419, 0.51607436, 14.48980618, -61.44078064, 41.30925751, -0.30339471, -0.10997104, -1.81836176, 0.99987018, 0.00266251, 0.00091754, 0.01587001, -0.01228434, 0.87918186, -0.49840814, 87.59200287, 1211.56689453, 38.09000015, 0.00000000
1, 0.0299, 3, 0.00944383, -0.87240130, -0.50237560, -0.58439910, 0.07690509, 0.26762816, 14.89201736, -61.96853638, 42.07053757, -0.30921492, -0.11191329, -1.81629479, 0.99987030, 0.00271354, 0.00093373, 0.01585206, -0.01139225, 0.87775308, -0.49760818, 87.59200287, 1211.56689453, 38.09000015, 0.00000000
1, 0.0399, 4, 0.00812586, -0.87059850, -0.49994639, -0.72611654, -0.06086947, 0.23000863, 14.89201736, -61.96853638, 42.07053757, -0.31647223, -0.11421464, -1.81558847, 0.99987024, 0.00277718, 0.00095283, 0.01584602, -0.01010852, 0.87607515, -0.50003660, 87.59200287, 1211.56689453, 38.09000015, 0.00000000
1, 0.0499, 5, 0.00873193, -0.86750144, -0.50053293, -0.91981256, -0.07555808, -0.01580377, 14.89201736, -62.76015854, 41.65183640, -0.32567167, -0.11444681, -1.81620431, 0.99986988, 0.00285749, 0.00095356, 0.01585147, -0.01072743, 0.87312096, -0.49944925, 87.59200287, 1211.56689453, 38.09000015, 0.00000000
1, 0.0599, 6, 0.01028678, -0.86893922, -0.49874169, -0.72804928, -0.36696637, -0.14117093, 14.08759975, -63.90362167, 41.53764343, -0.34186664, -0.11604601, -1.86643004, 0.99986243, 0.00299944, 0.00096396, 0.01628989, -0.01230249, 0.87475300, -0.50123936, 87.59200287, 1211.56689453, 38.09000015, 0.00000000
1, 0.0699, 7, 0.00931542, -0.86785120, -0.50299054, -0.03083267, -0.84569293, -0.50933057, 14.23385715, -63.24393463, 40.81442642, -0.34228611, -0.11581438, -1.87628794, 0.99986100, 0.00300315, 0.00096162, 0.01637590, -0.01133046, 0.87383419, -0.49698952, 87.59200287, 1211.56689453, 38.09000015, 0.00000000
1, 0.0799, 8, 0.00742497, -0.86684889, -0.50454241, 0.58262348, -1.14851344, -0.58788723, 14.34354877, -62.49628448, 41.23313141, -0.33661157, -0.11639015, -1.88925683, 0.99985927, 0.00295383, 0.00096713, 0.01648903, -0.00945550, 0.87276238, -0.49543810, 87.59200287, 1211.56689453, 38.09000015, 0.00000000
1, 0.0899, 9, 0.00519744, -0.86897892, -0.49704376, 0.45741501, -1.18380368, -0.58824605, 14.34354877, -62.49628448, 41.23313141, -0.33218551, -0.11714286, -1.90251482, 0.99985749, 0.00291543, 0.00097399, 0.01660469, -0.00723419, 0.87479961, -0.50293726, 87.59200287, 1211.56689453, 38.09000015, 0.00000000
1, 0.0999, 10, 0.00597101, -0.87444335, -0.49781293, 0.11487765, -1.11929834, -0.49795032, 13.97790337, -61.70465851, 41.27119446, -0.33116990, -0.11835436, -1.91472316, 0.99985570, 0.00290685, 0.00098440, 0.01671124, -0.00803255, 0.88022757, -0.50216818, 87.59200287, 1211.56689453, 38.09000015, 0.00000000
1, 0.1099, 11, 0.00816620, -0.87929374, -0.49948519, 0.75975674, -1.14968538, -0.43024918, 14.34354877, -61.52874374, 41.51861191, -0.32345060, -0.11989141, -1.97413063, 0.99984705, 0.00284024, 0.00099747, 0.01722956, -0.01025023, 0.88500053, -0.50049627, 87.59200287, 1211.56689453, 38.09000015, 0.00000000
1, 0.1199, 12, 0.00957017, -0.88226449, -0.49530667, 1.20851481, -1.19762659, -0.43263015, 14.67262936, -63.24393463, 41.11893845, -0.31149873, -0.12205844, -1.98683953, 0.99984539, 0.00273639, 0.00101787, 0.01734039, -0.01168799, 0.88777888, -0.50467587, 87.59200287, 1211.56689453, 38.09000015, 0.00000000
1, 0.1299, 13, 0.00971786, -0.88246858, -0.49773726, 0.67122513, -1.16639543, -0.50064278, 14.92858315, -62.45230865, 41.15700150, -0.30492872, -0.12347589, -1.99954176, 0.99984360, 0.00267940, 0.00103093, 0.01745120, -0.01186320, 0.88781750, -0.50224614, 87.59200287, 1211.56689453, 38.09000015, 0.00000000
1, 0.1399, 14, 0.00758987, -0.88044178, -0.49873054, -0.71106833, -1.00570035, -0.49303478, 14.92858315, -62.45230865, 41.15700150, -0.31216386, -0.12416547, -2.01063323, 0.99984181, 0.00274273, 0.00103558, 0.01754805, -0.00975653, 0.88583100, -0.50125259, 87.59200287, 1211.56689453, 38.09000015, 0.00000000
1, 0.1499, 15, 0.00729444, -0.87544638, -0.49872869, -1.19484329, -0.83567882, -0.62860638, 14.63606358, -64.03556061, 41.40441895, -0.32422623, -0.12283765, -2.02084088, 0.99983990, 0.00284786, 0.00102189, 0.01763720, -0.00944671, 0.88101792, -0.50125349, 87.59200287, 1211.56689453, 38.09000015, 0.00000000
1, 0.1599, 16, 0.00727203, -0.87026882, -0.49841493, -1.33614576, -0.93828827, -0.71822286, 14.16072655, -62.93607712, 40.89055252, -0.34306079, -0.12338870, -2.07844520, 0.99983048, 0.00301280, 0.00102229, 0.01813999, -0.00941084, 0.87609303, -0.50156581, 87.59200287, 1211.56689453, 38.09000015, 0.00000000
1, 0.1699, 17, 0.00753714, -0.86670220, -0.49617115, -1.67353153, -1.19710672, -0.79294509, 14.30698395, -61.30884552, 40.89055252, -0.35995123, -0.12243066, -2.09255171, 0.99982774, 0.00316014, 0.00101087, 0.01826319, -0.00968084, 0.87286693, -0.50380754, 87.59200287, 1211.56689453, 38.09000015, 0.00000000
1, 0.1799, 18, 0.00768500, -0.86293685, -0.49506563, -1.68839180, -1.45367920, -0.85102862, 14.48980618, -61.13293076, 41.09990692, -0.37702650, -0.12224514, -2.10915899, 0.99982464, 0.00330924, 0.00100605, 0.01840824, -0.00981596, 0.86940885, -0.50491118, 87.59200287, 1211.56689453, 38.09000015, 0.00000000
1, 0.1899, 19, 0.00723325, -0.86059290, -0.49723831, -1.32892537, -1.62325311, -0.80295873, 14.48980618, -61.13293076, 41.09990692, -0.39051488, -0.12331684, -2.12707090, 0.99982131, 0.00342726, 0.00101270, 0.01856467, -0.00938059, 0.86733013, -0.50273669, 87.59200287, 1211.56689453, 38.09000015, 0.00000000
1, 0.1999, 20, 0.00708721, -0.86086118, -0.49776492, -0.86020952, -1.65132189, -0.96318787, 14.70919418, -62.40832901, 41.08087540, -0.39932832, -0.12314413, -2.14607763, 0.99981797, 0.00350430, 0.00100918, 0.01873058, -0.00923620, 0.86777657, -0.50220895, 87.59200287, 1211.56689453, 38.09000015, 0.00000000
1, 0.2099, 21, 0.00930603, -0.86223626, -0.50138116, -0.05467397, -1.68130219, -0.84323472, 15.03827477, -65.04708099, 41.19506836, -0.41438544, -0.12566663, -2.20994806, 0.99980688, 0.00363666, 0.00102670, 0.01928806, -0.01146820, 0.86928338, -0.49859163, 87.59200287, 1211.56689453, 38.09000015, 0.00000000
1, 0.2199, 22, 0.00811785, -0.86268973, -0.50275123, 0.27201191, -1.81284034, -1.04036129, 14.52637196, -61.79261780, 40.77635956, -0.41188407, -0.12563720, -2.23088980, 0.99980342, 0.00361502, 0.00102620, 0.01947075, -0.01031424, 0.86989641, -0.49722040, 87.59200287, 1211.56689453, 38.09000015, 0.00000000
1, 0.2299, 23, 0.00586796, -0.86648226, -0.50409526, 0.46700177, -1.53656161, -1.05272794, 14.63606358, -62.01251602, 40.66217041, -0.40742388, -0.12412195, -2.24951911, 0.99980038, 0.00357601, 0.00101316, 0.01963320, -0.00804636, 0.87362343, -0.49587691, 87.59200287, 1211.56689453, 38.09000015, 0.00000000
1, 0.2399, 24, 0.00435020, -0.87056607, -0.50364882, 0.51602745, -1.28171349, -0.87173676, 15.00170898, -63.24393463, 41.15700150, -0.40243372, -0.12291695, -2.26503944, 0.99979788, 0.00353240, 0.00100302, 0.01976854, -0.00650293, 0.87762094, -0.49632400, 87.59200287, 1211.56689453, 38.09000015, 0.00000000
1, 0.2499, 25, 0.00114357, -0.87241232, -0.50163561, 0.54888928, -1.05959225, -0.79685426, 15.00170898, -63.24393463, 41.15700150, -0.39709967, -0.12125764, -2.27826214, 0.99979573, 0.00348569, 0.00098906, 0.01988381, -0.00327466, 0.87938023, -0.49833789, 87.59200287, 1211.56689453, 38.09000015, 0.00000000
1, 0.2599, 26, -0.00122135, -0.87014461, -0.50069135, 0.49099922, -0.71810490, -0.71918458, 15.14796638, -62.49628448, 41.29022598, -0.40369815, -0.14006145, -2.33427811, 0.99978548, 0.00354708, 0.00115025, 0.02037317, -0.00095755, 0.87707293, -0.49928224, 87.59200287, 1211.56689453, 38.09000015, 0.00000000
1, 0.2699, 27, 0.00031253, -0.87055486, -0.49833918, 0.72052085, -0.56448013, -0.55845231, 14.30698395, -62.14445114, 40.98571396, -0.39658058, -0.13801032, -2.34204340, 0.99978435, 0.00348470, 0.00113338, 0.02044079, -0.00273039, 0.87752366, -0.50163364, 87.59200287, 1211.56689453, 38.09000015, 0.00000000
1, 0.2799, 28, 0.00159650, -0.86956078, -0.49831802, 0.75661021, -0.61594361, -0.54206640, 14.52637196, -61.70465851, 40.81442642, -0.38909891, -0.13635872, -2.35018063, 0.99978316, 0.00341921, 0.00112006, 0.02051166, -0.00398744, 0.87640303, -0.50165570, 87.59200287, 1211.56689453, 38.09000015, 0.00000000
1, 0.2899, 29, 0.00184119, -0.87054038, -0.49979925, 0.70406550, -0.75358784, -0.54479939, 14.05103493, -61.52874374, 41.36635590, -0.38216236, -0.13536273, -2.35952711, 0.99978173, 0.00335860, 0.00111234, 0.02059311, -0.00420614, 0.87725675, -0.50017542, 87.59200287, 1211.56689453, 38.09000015, 0.00000000
1, 0.2999, 30, 0.00310051, -0.87053925, -0.49867782, 0.81322265, -1.16698921, -0.39561996, 14.05103493, -61.52874374, 41.36635590, -0.37415695, -0.13771594, -2.37173009, 0.99977970, 0.00328930, 0.00113396, 0.02069956, -0.00548450, 0.87711668, -0.50129771, 87.59200287, 1211.56689453, 38.09000015, 0.00000000
1, 0.3099, 31, 0.00369828, -0.87201852, -0.49708194, 0.84926349, -1.37454677, -0.27704567, 14.05103493, -63.11199188, 41.59473801, -0.37101212, -0.14630811, -2.43086481, 0.99976885, 0.00326404, 0.00120781, 0.02121571, -0.00617365, 0.87848163, -0.50289410, 87.59200287, 1211.56689453, 38.09000015, 0.00000000
1, 0.3199, 32, 0.00657445, -0.87270564, -0.49920923, 0.61705291, -1.34063756, -0.36351374, 14.56293774, -62.80414200, 41.63280487, -0.36498654, -0.14979531, -2.44439173, 0.99976647, 0.00321226, 0.00123897, 0.02133375, -0.00916539, 0.87911451, -0.50076687, 87.59200287, 1211.56689453, 38.09000015, 0.00000000
1, 0.3299, 33, 0.00547560, -0.87338412, -0.49974915, 0.24019361, -1.25725508, -0.39576429, 14.89201736, -61.26486588, 41.15700150, -0.36271816, -0.15259023, -2.45730472, 0.99976408, 0.00319313, 0.00126342, 0.02144647, -0.00811964, 0.87973160, -0.50022721, 87.59200287, 1211.56689453, 38.09000015, 0.00000000
1, 0.3399, 34, 0.00527018, -0.87185484, -0.50026351, 0.16886605, -1.27468407, -0.41349077, 14.74575996, -61.35282516, 41.08087540, -0.36117631, -0.15531480, -2.47044611, 0.99976164, 0.00318033, 0.00128711, 0.02156118, -0.00796882, 0.87816358, -0.49971297, 87.59200287, 1211.56689453, 38.09000015, 0.00000000
1, 0.3499, 35, 0.00475340, -0.87149990, -0.50202042, -0.01159708, -1.06939781, -0.46135756, 14.74575996, -61.35282516, 41.08087540, -0.36141017, -0.15660605, -2.48202133, 0.99975944, 0.00318275, 0.00129801, 0.02166220, -0.00747746, 0.87780333, -0.49795604, 87.59200287, 1211.56689453, 38.09000015, 0.00000000
1, 0.3599, 36, 0.00435045, -0.87056559, -0.50367957, -0.01092333, -0.98191476, -0.56499028, 14.52637196, -63.41984940, 41.67086411, -0.37524667, -0.16869897, -2.53913689, 0.99974805, 0.00330645, 0.00139925, 0.02216101, -0.00713782, 0.87693167, -0.49629623, 87.59200287, 1211.56689453, 38.09000015, 0.00000000
1, 0.3699, 37, 0.00360374, -0.87105501, -0.50230670, -0.15354601, -0.91270989, -0.66856873, 15.07484055, -64.82717896, 40.87152100, -0.37689272, -0.16741909, -2.55034304, 0.99974579, 0.00332070, 0.00138744, 0.02225876, -0.00653461, 0.87761867, -0.49766752, 87.59200287, 1211.56689453, 38.09000015, 0.00000000
1, 0.3799, 38, 0.00565898, -0.86992842, -0.50224537, -0.36837977, -0.84464079, -0.73679358, 15.11140537, -62.36434555, 41.19506836, -0.38069537, -0.16520083, -2.56129003, 0.99974358, 0.00335357, 0.00136703, 0.02235425, -0.00855533, 0.87654734, -0.49772853, 87.59200287, 1211.56689453, 38.09000015, 0.00000000
1, 0.3899, 39, 0.00662783, -0.86882406, -0.50176537, -0.40217918, -0.96384537, -0.80950946, 14.63606358, -62.32036591, 41.13796997, -0.38484156, -0.16294822, -2.57362318, 0.99974108, 0.00338945, 0.00134620, 0.02246183, -0.00948637, 0.87550932, -0.49820822, 87.59200287, 1211.56689453, 38.09000015, 0.00000000
1, 0.3999, 40, 0.00589868, -0.86798871, -0.50127500, -0.22355324, -1.10195303, -0.67233312, 14.63606358, -62.32036591, 41.13796997, -0.38721415, -0.16257404, -2.58649635, 0.99973845, 0.00341023, 0.00134209, 0.02257415, -0.00873621, 0.87473547, -0.49869815, 87.59200287, 1211.56689453, 38.09000015, 0.00000000
1, 0.4099, 41, 0.00598873, -0.86859381, -0.50346297, -0.20260410, -1.27162075, -0.78143412, 14.45324135, -61.04496765, 40.89055252, -0.40114638, -0.16541088, -2.64872479, 0.99972564, 0.00353308, 0.00136218, 0.02311730, -0.00883469, 0.87543005, -0.49650967, 87.59200287, 1211.56689453, 38.09000015, 0.00000000
1, 0.4199, 42, 0.00428778, -0.86842883, -0.50391108, 0.06626687, -1.33898115, -0.73093814, 14.67262936, -60.60517502, 41.19506836, -0.40063447, -0.16570723, -2.66397691, 0.99972260, 0.00352885, 0.00136440, 0.02325037, -0.00717377, 0.87542331, -0.49606028, 87.59200287, 1211.56689453, 38.09000015, 0.00000000
1, 0.4299, 43, 0.00343092, -0.86716336, -0.50375754, 0.08329847, -1.37457871, -0.64384705, 15.51361179, -62.62821960, 41.27119446, -0.39996856, -0.16693716, -2.67911029, 0.99971944, 0.00352347, 0.00137480, 0.02338243, -0.00634306, 0.87415314, -0.49621376, 87.59200287, 1211.56689453, 38.09000015, 0.00000000
1, 0.4399, 44, 0.00113459, -0.86850113, -0.50419217, -0.09678224, -1.23819053, -0.67558527, 14.41668034, -63.59576416, 41.00474548, -0.40108052, -0.16721299, -2.69319868, 0.99971658, 0.00353340, 0.00137654, 0.02350536, -0.00405501, 0.87548774, -0.49577910, 87.59200287, 1211.56689453, 38.09000015, 0.00000000
1, 0.4499, 45, 0.00075746, -0.86854899, -0.50342745, -0.06158158, -1.03064311, -0.75922114, 14.41668034, -63.59576416, 41.00474548, -0.40181845, -0.16573939, -2.70591068, 0.99971402, 0.00353969, 0.00136314, 0.02361622, -0.00366393, 0.87555718, -0.49654377, 87.59200287, 1211.56689453, 38.09000015, 0.00000000
1, 0.4599, 46, 0.00090726, -0.87019289, -0.50343758, -0.31598631, -0.93256158, -0.58059752, 15.44048595, -62.27638626, 41.17603302, -0.41866443, -0.17753309, -2.76421928, 0.99970108, 0.00368983, 0.00146068, 0.02412549, -0.00384974, 0.87729776, -0.49653283, 87.59200287, 1211.56689453, 38.09000015, 0.00000000
1, 0.4699, 47, 0.00037345, -0.87144434, -0.50385243, -0.24249250, -0.96458495, -0.68696547, 15.07484055, -60.73711777, 41.19506836, -0.42122000, -0.17635337, -2.77598166, 0.99969852, 0.00371202, 0.00144947, 0.02422810, -0.00346427, 0.87878305, -0.49611589, 87.59200287, 1211.56689453, 38.09000015, 0.00000000
1, 0.4799, 48, 0.00193226, -0.87300014, -0.50230813, -0.18918285, -0.96473598, -0.65197521, 15.18453217, -61.22089005, 41.06184387, -0.42321554, -0.17548208, -2.78756595, 0.99969602, 0.00372939, 0.00144107, 0.02432916, -0.00500070, 0.88037312, -0.49766004, 87.59200287, 1211.56689453, 38.09000015, 0.00000000
1, 0.4899, 49, 0.00306490, -0.87193924, -0.50281119, 0.00870583, -0.97976822, -0.68805337, 14.67262936, -61.70465851, 41.65183640, -0.42324793, -0.17437561, -2.79948258, 0.99969357, 0.00372959, 0.00143102, 0.02443308, -0.00611580, 0.87932688, -0.49715686, 87.59200287, 1211.56689453, 38.09000015, 0.00000000
1, 0.4999, 50, 0.00269606, -0.87052280, -0.50209737, 0.09787863, -0.97963786, -0.65316677, 14.67262936, -61.70465851, 41.65183640, -0.42238414, -0.17357334, -2.81124496, 0.99969107, 0.00372203, 0.00142383, 0.02453566, -0.00573074, 0.87789923, -0.49787083, 87.59200287, 1211.56689453, 38.09000015, 0.00000000
1, 0.5099, 51, 0.00471863, -0.86874074, -0.50304711, -0.13516171, -1.01605880, -0.63564116, 15.25766277, -62.32036591, 41.59473801, -0.44118556, -0.18362235, -2.87046695, 0.99967742, 0.00388898, 0.00150546, 0.02505287, -0.00778834, 0.87620205, -0.49692032, 87.59200287, 1211.56689453, 38.09000015, 0.00000000
1, 0.5199, 52, 0.00328269, -0.86576754, -0.50347227, -0.29666990, -0.89610946, -0.70293838, 15.22109699, -62.40832901, 40.96668243, -0.44426298, -0.18197322, -2.88169122, 0.99967498, 0.00391561, 0.00149002, 0.02515078, -0.00647113, 0.87349761, -0.49649280, 87.59200287, 1211.56689453, 38.09000015, 0.00000000
1, 0.5299, 53, 0.00283924, -0.86472130, -0.50057733, -0.43987983, -0.89694840, -0.72009617, 14.89201736, -61.13293076, 41.11893845, -0.44877410, -0.18018256, -2.89299607, 0.99967235, 0.00395472, 0.00147301, 0.02524940, -0.00599844, 0.87252384, -0.49938720, 87.59200287, 1211.56689453, 38.09000015, 0.00000000
1, 0.5399, 54, 0.00074556, -0.86480027, -0.50533909, -0.36823973, -0.91382504, -0.70309186, 14.89201736, -61.96853638, 40.77635956, -0.45257208, -0.17862362, -2.90437222, 0.99966967, 0.00398766, 0.00145818, 0.02534863, -0.00387421, 0.87268007, -0.49462497, 87.59200287, 1211.56689453, 38.09000015, 0.00000000
1, 0.5499, 55, -0.00257627, -0.86518842, -0.50703967, -0.13334557, -0.89255089, -0.84398985, 15.11140537, -62.84811401, 41.19506836, -0.45402876, -0.17573710, -2.91629338, 0.99966711, 0.00399987, 0.00143226, 0.02545255, -0.00051060, 0.87310469, -0.49292421, 87.59200287, 1211.56689453, 38.09000015, 0.00000000
1, 0.5599, 56, -0.00488689, -0.86909544, -0.50103158, -0.06429200, -0.65242243, -0.80399603, 15.11140537, -62.84811401, 41.19506836, -0.46253759, -0.20467107, -2.97255468, 0.99965370, 0.00408135, 0.00168078, 0.02594447, 0.00171642, 0.87705690, -0.49893165, 87.59200287, 1211.56689453, 38.09000015, 0.00000000
1, 0.5699, 57, -0.00603263, -0.87006044, -0.50280476, 0.06046401, -0.51364237, -0.83661675, 14.89201736, -63.19995117, 40.89055252, -0.46201977, -0.19996309, -2.98117304, 0.99965185, 0.00407589, 0.00163952, 0.02601948, 0.00251387, 0.87813407, -0.49715650, 87.59200287, 1211.56689453, 38.09000015, 0.00000000
1, 0.5799, 58, -0.00230839, -0.87285066, -0.50613785, 0.83349913, -0.64395529, -0.89445674, 15.00170898, -60.78109741, 40.54797745, -0.45378667, -0.19540159, -2.99131370, 0.99964982, 0.00400318, 0.00160124, 0.02610767, -0.00112952, 0.88083684, -0.49382436, 87.59200287, 1211.56689453, 38.09000015, 0.00000000
1, 0.5899, 59, -0.00079084, -0.87587500, -0.50429690, 1.33468318, -0.67575449, -0.80876732, 14.96514320, -61.00099564, 40.75733185, -0.44053274, -0.19174422, -3.00137877, 0.99964809, 0.00388686, 0.00157202, 0.02619517, -0.00257830, 0.88364959, -0.49566722, 87.59200287, 1211.56689453, 38.09000015, 0.00000000
1, 0.5999, 60, -0.00112203, -0.87495250, -0.50709379, 0.84953934, -0.49001279, -0.85611272, 14.78232574, -60.69313812, 40.89055252, -0.43212634, -0.18674603, -3.00999212, 0.99964654, 0.00381250, 0.00153005, 0.02627003, -0.00216977, 0.88253576, -0.49287200, 87.59200287, 1211.56689453, 38.09000015, 0.00000000
1, 0.6099, 61, 0.00240791, -0.87218696, -0.50515854, 0.07576039, -0.41259080, -0.71149093, 14.78232574, -60.69313812, 40.89055252, -0.46024740, -0.20207198, -3.06528044, 0.99963248, 0.00406213, 0.00165534, 0.02675324, -0.00570960, 0.87984079, -0.49480665, 87.59200287, 1211.56689453, 38.09000015, 0.00000000
1, 0.6199, 62, 0.00322249, -0.87149209, -0.50397545, -0.58935642, -0.26370785, -0.68874741, 15.29422855, -63.85964203, 40.90958786, -0.46619031, -0.19740820, -3.07090950, 0.99963105, 0.00411296, 0.00161307, 0.02680227, -0.00669906, 0.87958539, -0.49598575, 87.59200287, 1211.56689453, 38.09000015, 0.00000000
1, 0.6299, 63, 0.00213645, -0.86795753, -0.50291586, -0.76844585, -0.31685954, -0.67173851, 14.56293774, -62.01251602, 41.04280853, -0.47393599, -0.19315659, -3.07689309, 0.99962944, 0.00417962, 0.00157395, 0.02685443, -0.00553134, 0.87617165, -0.49704462, 87.59200287, 1211.56689453, 38.09000015, 0.00000000
1, 0.6399, 64, 0.00295274, -0.86392277, -0.50084728, -1.00257492, -0.47592893, -0.49858335, 14.78232574, -61.04496765, 40.71926498, -0.48402786, -0.19119701, -3.08336616, 0.99962753, 0.00426728, 0.00155425, 0.02691096, -0.00629881, 0.87230986, -0.49911195, 87.59200287, 1211.56689453, 38.09000015, 0.00000000
1, 0.6499, 65, 0.00204048, -0.86280769, -0.50481838, -1.05654240, -0.51122957, -0.46400371, 14.48980618, -61.35282516, 40.66217041, -0.49465927, -0.18971279, -3.08997059, 0.99962562, 0.00435976, 0.00153855, 0.02696866, -0.00536077, 0.87136710, -0.49513954, 87.59200287, 1211.56689453, 38.09000015, 0.00000000
1, 0.6599, 66, 0.00098358, -0.86183292, -0.50971514, -1.14992893, -0.29095289, -0.33603871, 14.48980618, -61.35282516, 40.66217041, -0.53313589, -0.20279787, -3.14177299, 0.99961156, 0.00469923, 0.00164152, 0.02742159, -0.00434352, 0.87070954, -0.49023977, 87.59200287, 1211.56689453, 38.09000015, 0.00000000
1, 0.6699, 67, -0.00024609, -0.86092573, -0.51236814, -0.57646900, -0.11349044, -0.42195407, 14.74575996, -60.73711777, 41.09990692, -0.53892291, -0.19970517, -3.14477086, 0.99961066, 0.00474901, 0.00161303, 0.02744770, -0.00325587, 0.87030065, -0.48758176, 87.59200287, 1211.56689453, 38.09000015, 0.00000000
1, 0.6799, 68, -0.00344129, -0.85931963, -0.51082236, -0.05783834, -0.14572193, -0.30117050, 14.45324135, -63.19995117, 40.89055252, -0.53952873, -0.19781536, -3.14753270, 0.99961001, 0.00475388, 0.00159629, 0.02747172, -0.00002918, 0.86874032, -0.48912728, 87.59200287, 1211.56689453, 38.09000015, 0.00000000
1, 0.6899, 69, -0.00342381, -0.85871691, -0.51035631, 0.55122620, -0.02029612, -0.33555380, 14.85545158, -62.45230865, 41.11893845, -0.53402835, -0.19500665, -3.14945698, 0.99960989, 0.00470526, 0.00157302, 0.02748832, -0.00000146, 0.86808616, -0.48959392, 87.59200287, 1211.56689453, 38.09000015, 0.00000000
1, 0.6999, 70, -0.00449612, -0.85949737, -0.51018900, 0.96247238, 0.08556973, -0.31700817, 14.34354877, -61.83659363, 40.73830032, -0.52441394, -0.19183439, -3.15042639, 0.99961007, 0.00462064, 0.00154762, 0.02749652, 0.00113000, 0.86872065, -0.48976281, 87.59200287, 1211.56689453, 38.09000015, 0.00000000
1, 0.7099, 71, -0.00447082, -0.86174083, -0.50900483, 1.19535661, 0.13914353, -0.33417276, 14.34354877, -61.83659363, 40.73830032, -0.53738630, -0.21038522, -3.19853306, 0.99959755, 0.00473897, 0.00170434, 0.02791708, 0.00106660, 0.87087524, -0.49094763, 87.59200287, 1211.56689453, 38.09000015, 0.00000000
1, 0.7199, 72, -0.00219045, -0.86411500, -0.50708932, 1.17621255, 0.13757008, -0.24625573, 14.74575996, -61.26486588, 41.13796997, -0.52561450, -0.20756845, -3.19872618, 0.99959803, 0.00463560, 0.00168263, 0.02791848, -0.00144813, 0.87336075, -0.49286130, 87.59200287, 1211.56689453, 38.09000015, 0.00000000
1, 0.7299, 73, -0.00121891, -0.86687583, -0.50703698, 1.19594908, -0.03353040, -0.26749158, 14.48980618, -62.62821960, 41.29022598, -0.51367521, -0.20541570, -3.20050859, 0.99959815, 0.00453095, 0.00166669, 0.02793378, -0.00237679, 0.87591249, -0.49291575, 87.59200287, 1211.56689453, 38.09000015, 0.00000000
1, 0.7399, 74, -0.00214431, -0.86880350, -0.50746083, 0.94501472, -0.20874704, -0.16493765, 15.11140537, -61.79261780, 41.15700150, -0.50425202, -0.20502670, -3.20325589, 0.99959779, 0.00444869, 0.00166549, 0.02795758, -0.00143240, 0.87766230, -0.49249348, 87.59200287, 1211.56689453, 38.09000015, 0.00000000
1, 0.7499, 75, -0.00090197, -0.87097842, -0.50758594, 1.01769483, -0.25906950, -0.20137455, 14.74575996, -60.86905289, 40.58604431, -0.49410081, -0.20457594, -3.20663309, 0.99959743, 0.00436008, 0.00166390, 0.02798688, -0.00267308, 0.87967032, -0.49236983, 87.59200287, 1211.56689453, 38.09000015, 0.00000000
1, 0.7599, 76, 0.00058027, -0.87127608, -0.50664884, 1.16208494, -0.36086062, -0.20395640, 14.74575996, -60.86905289, 40.58604431, -0.49586192, -0.21629336, -3.25959730, 0.99958414, 0.00437912, 0.00176366, 0.02844936, -0.00419738, 0.87983650, -0.49330792, 87.59200287, 1211.56689453, 38.09000015, 0.00000000
1, 0.7699, 77, 0.00118223, -0.87073386, -0.50565380, 1.28871572, -0.42791384, -0.24091020, 14.48980618, -60.64915848, 40.43378448, -0.48302510, -0.21633287, -3.26468635, 0.99958330, 0.00426723, 0.00176700, 0.02849355, -0.00496229, 0.87924433, -0.49430284, 87.59200287, 1211.56689453, 38.09000015, 0.00000000
1, 0.7799, 78, 0.00211305, -0.87209636, -0.50340730, 1.19992554, -0.49694180, -0.25966814, 15.11140537, -61.44078064, 41.17603302, -0.47108302, -0.21655039, -3.27044296, 0.99958229, 0.00416321, 0.00177166, 0.02854359, -0.00589483, 0.88039285, -0.49655119, 87.59200287, 1211.56689453, 38.09000015, 0.00000000
1, 0.7899, 79, 0.00118646, -0.87050134, -0.50294447, 0.87682372, -0.27448228, -0.37705070, 14.63606358, -61.17690277, 41.21409988, -0.46235555, -0.21464309, -3.27481532, 0.99958163, 0.00408667, 0.00175704, 0.02858153, -0.00494605, 0.87862211, -0.49701551, 87.59200287, 1211.56689453, 38.09000015, 0.00000000
1, 0.7999, 80, 0.00047643, -0.87110990, -0.50566423, 0.53570360, -0.06960271, -0.47716942, 15.07484055, -62.45230865, 40.89055252, -0.45703542, -0.21085115, -3.27786303, 0.99958110, 0.00403936, 0.00172518, 0.02860790, -0.00418113, 0.87911355, -0.49429694, 87.59200287, 1211.56689453, 38.09000015, 0.00000000
1, 0.8099, 81, -0.00080243, -0.87143523, -0.50752664, 0.14257778, -0.08841781, -0.56425357, 15.07484055, -62.45230865, 40.89055252, -0.48502642, -0.23870265, -3.32920289, 0.99956667, 0.00429135, 0.00195922, 0.02905717, -0.00297112, 0.87952256, -0.49243349, 87.59200287, 1211.56689453, 38.09000015, 0.00000000
1, 0.8199, 82, -0.00237144, -0.87150413, -0.50849807, 0.03689602, -0.19103238, -0.63640082, 14.19729233, -61.30884552, 40.81442642, -0.48470363, -0.23412786, -3.33403087, 0.99956554, 0.00428746, 0.00191922, 0.02909911, -0.00174560, 0.87996179, -0.49145770, 87.59200287, 1211.56689453, 38.09000015, 0.00000000
1, 0.8299, 83, -0.00317768, -0.87315613, -0.50888795, -0.03398395, -0.06923329, -0.77424973, 14.56293774, -60.95701218, 40.58604431, -0.48507988, -0.22775973, -3.33847022, 0.99956453, 0.00428920, 0.00186341, 0.02913761, -0.00084355, 0.88162601, -0.49106815, 87.59200287, 1211.56689453, 38.09000015, 0.00000000
1, 0.8399, 84, -0.00451816, -0.87284929, -0.50831580, 0.34115627, 0.03606462, -0.73802722, 15.40392017, -61.22089005, 40.68120193, -0.48169750, -0.22117887, -3.34186959, 0.99956387, 0.00425808, 0.00180674, 0.02916697, 0.00061530, 0.88127482, -0.49164113, 87.59200287, 1211.56689453, 38.09000015, 0.00000000
1, 0.8499, 85, -0.00253464, -0.87073290, -0.50529444, 0.25085717, 0.05194086, -0.70226049, 14.74575996, -64.25545502, 40.90958786, -0.47922608, -0.21482579, -3.34494734, 0.99956334, 0.00423495, 0.00175184, 0.02919355, -0.00125927, 0.87910914, -0.49466333, 87.59200287, 1211.56689453, 38.09000015, 0.00000000
1, 0.8599, 86, -0.00207921, -0.87042856, -0.50482571, 0.24934837, 0.13684508, -0.64773595, 14.89201736, -62.67220306, 40.60507202, -0.49228749, -0.23086755, -3.39309621, 0.99955016, 0.00435376, 0.00188661, 0.02961433, -0.00170171, 0.87884271, -0.49513173, 87.59200287, 1211.56689453, 38.09000015, 0.00000000
1, 0.8699, 87, -0.00054096, -0.87013525, -0.50065309, 0.41093737, 0.27705276, -0.75075257, 14.89201736, -62.67220306, 40.60507202, -0.48818511, -0.22297694, -3.39447618, 0.99955016, 0.00431596, 0.00181879, 0.02962602, -0.00340071, 0.87868035, -0.49930263, 87.59200287, 1211.56689453, 38.09000015, 0.00000000
1, 0.8799, 88, 0.00095731, -0.87068510, -0.50113297, 0.10832089, 0.13858511, -0.82305092, 15.11140537, -61.39680099, 41.17603302, -0.48712242, -0.21514736, -3.39738417, 0.99954957, 0.00430471, 0.00175066, 0.02965108, -0.00475841, 0.87919378, -0.49882358, 87.59200287, 1211.56689453, 38.09000015, 0.00000000
1, 0.8899, 89, 0.00033658, -0.86969346, -0.50276339, -0.17722657, -0.17413506, -0.72328192, 15.07484055, -61.35282516, 40.89055252, -0.48894107, -0.20974165, -3.40247416, 0.99954820, 0.00431925, 0.00170284, 0.02969530, -0.00403023, 0.87821186, -0.49719357, 87.59200287, 1211.56689453, 38.09000015, 0.00000000
1, 0.8999, 90, 0.00184027, -0.86982507, -0.50465554, -0.42675993, -0.26100889, -0.77707970, 14.19729233, -61.52874374, 40.26249695, -0.49326396, -0.20429935, -3.40854454, 0.99954665, 0.00435564, 0.00165402, 0.02974812, -0.00544175, 0.87840021, -0.49530128, 87.59200287, 1211.56689453, 38.09000015, 0.00000000
1, 0.9099, 91, 0.00044587, -0.86814964, -0.50392032, -0.53493673, -0.33189681, -0.69034755, 14.30698395, -60.95701218, 40.73830032, -0.51386434, -0.21559411, -3.46217656, 0.99953157, 0.00453908, 0.00174507, 0.03021666, -0.00402955, 0.87687981, -0.49603519, 87.59200287, 1211.56689453, 38.09000015, 0.00000000
1, 0.9199, 92, 0.00085049, -0.86766845, -0.50508165, -0.57244873, -0.17808981, -0.66942072, 14.30698395, -60.95701218, 40.73830032, -0.51963431, -0.21067043, -3.46698236, 0.99953020, 0.00458818, 0.00170041, 0.03025848, -0.00456093, 0.87670529, -0.49487066, 87.59200287, 1211.56689453, 38.09000015, 0.00000000
1, 0.9299, 93, 0.00078388, -0.86818045, -0.50357836, -0.18242678, -0.00690562, -0.45607555, 14.56293774, -62.71617889, 40.81442642, -0.52147979, -0.20674419, -3.46929288, 0.99952948, 0.00460327, 0.00166558, 0.03027850, -0.00441461, 0.87726963, -0.49637377, 87.59200287, 1211.56689453, 38.09000015, 0.00000000
1, 0.9399, 94, 0.00103406, -0.86738718, -0.50535452, -0.09351765, 0.18362451, -0.52265519, 14.41668034, -63.28790665, 40.87152100, -0.52242386, -0.20129637, -3.47028923, 0.99952936, 0.00461008, 0.00161777, 0.03028699, -0.00458091, 0.87650299, -0.49459761, 87.59200287, 1211.56689453, 38.09000015, 0.00000000
1, 0.9499, 95, 0.00111946, -0.86746258, -0.50433880, 0.13806756, 0.21832621, -0.43474272, 14.81888676, -61.66067886, 40.54797745, -0.52103466, -0.19643970, -3.47058725, 0.99952936, 0.00459669, 0.00157577, 0.03028938, -0.00458540, 0.87656766, -0.49561375, 87.59200287, 1211.56689453, 38.09000015, 0.00000000
1, 0.9599, 96, 0.00009344, -0.86465734, -0.50534523, 0.08678415, 0.23820899, -0.62752914, 14.74575996, -61.08895111, 40.22443390, -0.55694723, -0.22180414, -3.51927829, 0.99951446, 0.00491739, 0.00178543, 0.03071564, -0.00358747, 0.87390399, -0.49460584, 87.59200287, 1211.56689453, 38.09000015, 0.00000000
1, 0.9699, 97, 0.00052034, -0.86296308, -0.50409770, 0.19440596, 0.34311596, -0.69596618, 14.74575996, -61.08895111, 40.22443390, -0.55500430, -0.21405824, -3.51980090, 0.99951458, 0.00489838, 0.00171836, 0.03071985, -0.00431044, 0.87266266, -0.49584812, 87.59200287, 1211.56689453, 38.09000015, 0.00000000
1, 0.9799, 98, 0.00146970, -0.86089605, -0.50674933, 0.24845944, 0.39585596, -0.74775767, 14.52637196, -61.26486588, 40.58604431, -0.55252689, -0.20560370, -3.52012181, 0.99951482, 0.00487451, 0.00164527, 0.03072226, -0.00511400, 0.87055784, -0.49319732, 87.59200287, 1211.56689453, 38.09000015, 0.00000000
1, 0.9899, 99, 0.00256164, -0.85997957, -0.50583857, 0.34186250, 0.22761062, -0.90978539, 14.56293774, -62.01251602, 41.13796997, -0.54912591, -0.19658832, -3.52272582, 0.99951440, 0.00484247, 0.00156743, 0.03074455, -0.00604860, 0.86958611, -0.49410921, 87.59200287, 1211.56689453, 38.09000015, 0.00000000
1, 0.9999, 100, 0.00322094, -0.86281312, -0.50532860, 0.52329582, 0.02347076, -0.93221074, 14.38011456, -61.22089005, 40.49088287, -0.54393536, -0.18838640, -3.52724171, 0.99951351, 0.00479505, 0.00149710, 0.03078353, -0.00656715, 0.87233913, -0.49462044, 87.59200287, 1211.56689453, 38.09000015, 0.00000000
1, 1.0099, 101, 0.00214911, -0.86519814, -0.50588048, 0.64945823, 0.00787590, -0.96808130, 14.78232574, -61.74863815, 40.58604431, -0.55608594, -0.19434254, -3.58018208, 0.99949861, 0.00490335, 0.00154352, 0.03124570, -0.00540490, 0.87470770, -0.49406904, 87.59200287, 1211.56689453, 38.09000015, 0.00000000
1, 1.0199, 102, 0.00290376, -0.86648273, -0.50489688, 0.99211949, -0.17784503, -0.99061269, 14.78232574, -61.74863815, 40.58604431, -0.54622924, -0.18663622, -3.58680129, 0.99949729, 0.00481536, 0.00147871, 0.03130298, -0.00621396, 0.87608802, -0.49505156, 87.59200287, 1211.56689453, 38.09000015, 0.00000000
1, 1.0299, 103, 0.00231991, -0.86811095, -0.49873045, 0.97434413, -0.19513847, -0.99092174, 14.78232574, -61.83659363, 40.54797745, -0.53655070, -0.17902312, -3.59355760, 0.99949592, 0.00472895, 0.00141467, 0.03136149, -0.00549236, 0.87752855, -0.50122011, 87.59200287, 1211.56689453, 38.09000015, 0.00000000
1, 1.0399, 104, 0.00397239, -0.87111247, -0.49824163, 0.62011528, -0.33144924, -1.22122169, 14.59950256, -62.10047150, 40.79539490, -0.53043747, -0.17008397, -3.60260105, 0.99949384, 0.00467328, 0.00133801, 0.03143993, -0.00700064, 0.88041258, -0.50171053, 87.59200287, 1211.56689453, 38.09000015, 0.00000000
1, 1.0499, 105, 0.00659327, -0.87575090, -0.49941546, 1.04778409, -0.14053845, -1.14820361, 14.59950256, -61.52874374, 40.47185135, -0.52003193, -0.16082434, -3.60969138, 0.99949241, 0.00458006, 0.00125982, 0.03150129, -0.00945701, 0.88490361, -0.50053865, 87.59200287, 1211.56689453, 38.09000015, 0.00000000
1, 1.0599, 106, 0.00605787, -0.87926990, -0.49907732, 0.95835251, -0.19298674, -1.13145411, 14.34354877, -61.52874374, 40.68120193, -0.51251012, -0.16037656, -3.66583848, 0.99947727, 0.00451495, 0.00125577, 0.03199092, -0.00880382, 0.88824111, -0.50087869, 87.59200287, 1211.56689453, 38.09000015, 0.00000000
1, 1.0699, 107, 0.00510544, -0.87889463, -0.50059265, -0.34925079, -0.11491401, -1.28401649, 14.34354877, -61.52874374, 40.68120193, -0.51608515, -0.14980887, -3.67318654, 0.99947512, 0.00454326, 0.00116230, 0.03205463, -0.00779240, 0.88785654, -0.49936360, 87.59200287, 1211.56689453, 38.09000015, 0.00000000
1, 1.0799, 108, 0.00437396, -0.87844509, -0.50275123, -1.53310084, -0.00327023, -1.33078170, 14.85545158, -60.91303253, 40.64313889, -0.53148818, -0.13828491, -3.67963171, 0.99947280, 0.00467444, 0.00105722, 0.03211054, -0.00686624, 0.88761574, -0.49720359, 87.59200287, 1211.56689453, 38.09000015, 0.00000000
1, 1.0899, 109, 0.00326395, -0.87383068, -0.50451487, -1.49578249, -0.00126955, -1.43632364, 14.92858315, -61.52874374, 41.04280853, -0.54651517, -0.12584394, -3.68659711, 0.99947047, 0.00480208, 0.00094421, 0.03217092, -0.00554441, 0.88326752, -0.49543801, 87.59200287, 1211.56689453, 38.09000015, 0.00000000
1, 1.0999, 110, 0.00378091, -0.86899686, -0.50512069, -0.80924779, -0.37127861, -1.56925166, 14.67262936, -61.61669922, 40.58604431, -0.55472094, -0.11408763, -3.69751811, 0.99946719, 0.00487043, 0.00083890, 0.03226575, -0.00584673, 0.87862939, -0.49483079, 87.59200287, 1211.56689453, 38.09000015, 0.00000000
1, 1.1099, 111, 0.00405076, -0.86614317, -0.50211275, -0.39508137, -0.74740976, -1.45537829, 14.78232574, -61.61669922, 40.52894592, -0.57144624, -0.11339963, -3.75910902, 0.99944896, 0.00501656, 0.00082549, 0.03280303, -0.00597833, 0.87592727, -0.49783754, 87.59200287, 1211.56689453, 38.09000015, 0.00000000
1, 1.1199, 112, 0.00336259, -0.86418986, -0.50487542, -0.23114835, -0.86449361, -1.56381142, 14.78232574, -61.61669922, 40.52894592, -0.57392430, -0.10416051, -3.77437544, 0.99944460, 0.00503563, 0.00074353, 0.03293580, -0.00524340, 0.87419111, -0.49507284, 87.59200287, 1211.56689453, 38.09000015, 0.00000000
1, 1.1299, 113, 0.00322827, -0.86223429, -0.50726283, -0.30481979, -0.62463105, -1.57612133, 15.22109699, -60.64915848, 41.06184387, -0.57712448, -0.09361760, -3.78760839, 0.99944067, 0.00506058, 0.00065007, 0.03305077, -0.00492946, 0.87228668, -0.49268520, 87.59200287, 1211.56689453, 38.09000015, 0.00000000
1, 1.1399, 114, 0.00316069, -0.86083353, -0.50919187, -0.16206230, -0.52030230, -1.59194314, 14.56293774, -62.80414200, 40.75733185, -0.57888460, -0.08241469, -3.80004072, 0.99943709, 0.00507276, 0.00055131, 0.03315872, -0.00467298, 0.87092996, -0.49075601, 87.59200287, 1211.56689453, 38.09000015, 0.00000000
1, 1.1499, 115, 0.00339947, -0.86034429, -0.50906271, -0.21709086, -0.33147082, -1.62296128, 15.00170898, -61.96853638, 41.00474548, -0.58118588, -0.06999576, -3.81098175, 0.99943388, 0.00508929, 0.00044184, 0.03325361, -0.00470589, 0.87047064, -0.49088514, 87.59200287, 1211.56689453, 38.09000015, 0.00000000
1, 1.1599, 116, 0.00315857, -0.85907507, -0.50856394, 0.08420568, -0.02118888, -1.56462526, 15.00170898, -61.96853638, 40.56701279, -0.60550874, -0.06776032, -3.86667776, 0.99941653, 0.00530097, 0.00041271, 0.03373936, -0.00428347, 0.86932909, -0.49138287, 87.59200287, 1211.56689453, 38.09000015, 0.00000000
1, 1.1699, 117, 0.00194812, -0.86227953, -0.50949246, 0.24285226, 0.01151733, -1.38864005, 14.70919418, -60.56120300, 40.16733932, -0.60316098, -0.05566777, -3.87354207, 0.99941468, 0.00527696, 0.00030762, 0.03379866, -0.00299616, 0.87282610, -0.49045140, 87.59200287, 1211.56689453, 38.09000015, 0.00000000
1, 1.1799, 118, 0.00252804, -0.86511552, -0.50692189, 0.36596423, 0.06166803, -1.24733579, 14.70919418, -60.56120300, 40.16733932, -0.59956747, -0.04454788, -3.87928319, 0.99941325, 0.00524235, 0.00021143, 0.03384823, -0.00337206, 0.87560332, -0.49302277, 87.59200287, 1211.56689453, 38.09000015, 0.00000000
1, 1.1899, 119, 0.00214219, -0.86684817, -0.50564623, 0.40120241, 0.13056049, -1.24599528, 14.92858315, -61.52874374, 40.58604431, -0.59562248, -0.03310248, -3.88442135, 0.99941194, 0.00520457, 0.00011254, 0.03389251, -0.00279168, 0.87727475, -0.49429923, 87.59200287, 1211.56689453, 38.09000015, 0.00000000
1, 1.1999, 120, 0.00155595, -0.86892509, -0.50200611, 0.63102019, 0.19784847, -1.05192268, 15.33078861, -62.23241043, 40.43378448, -0.58935511, -0.02300142, -3.88804126, 0.99941123, 0.00514692, 0.00002614, 0.03392363, -0.00202754, 0.87924862, -0.49794054, 87.59200287, 1211.56689453, 38.09000015, 0.00000000
1, 1.2099, 121, -0.00111495, -0.86905050, -0.50431299, 0.53891605, 0.38496587, -0.99497175, 15.22109699, -62.05649185, 40.37668991, -0.59426969, -0.03356981, -3.93761063, 0.99939615, 0.00519296, 0.00011461, 0.03435642, 0.00073024, 0.87932444, -0.49563414, 87.59200287, 1211.56689453, 38.09000015, 0.00000000
1, 1.2199, 122, -0.00045132, -0.86907762, -0.50587517, 0.43195155, 0.31551066, -0.99610466, 15.03827477, -63.02403641, 40.30056381, -0.58997738, -0.02336489, -3.93990803, 0.99939579, 0.00515247, 0.00002679, 0.03437600, -0.00002806, 0.87940109, -0.49407139, 87.59200287, 1211.56689453, 38.09000015, 0.00000000
1, 1.2299, 123, 0.00220481, -0.86936653, -0.50834048, 0.46632221, 0.45272771, -0.97574681, 15.03827477, -63.02403641, 40.30056381, -0.58533084, -0.01265227, -3.94092369, 0.99939567, 0.00510873, -0.00006529, 0.03438437, -0.00249335, 0.87961340, -0.49160701, 87.59200287, 1211.56689453, 38.09000015, 0.00000000
1, 1.2399, 124, 0.00235048, -0.87048459, -0.50883919, 0.39480591, 0.34838867, -0.92498660, 14.59950256, -60.51721954, 40.16733932, -0.58140767, -0.00290000, -3.94255805, 0.99939543, 0.00507158, -0.00014924, 0.03439820, -0.00246204, 0.88065606, -0.49110910, 87.59200287, 1211.56689453, 38.09000015, 0.00000000
1, 1.2499, 125, 0.00397622, -0.86926317, -0.50939727, 0.28525513, 0.53593844, -0.90312999, 14.38011456, -60.95701218, 40.45281982, -0.57854772, 0.00759691, -3.94246340, 0.99939549, 0.00504349, -0.00023992, 0.03439691, -0.00391329, 0.87938082, -0.49055153, 87.59200287, 1211.56689453, 38.09000015, 0.00000000
1, 1.2599, 126, 0.00513462, -0.87050772, -0.50865507, 0.05009728, 0.70506418, -0.86369818, 14.89201736, -61.96853638, 40.89055252, -0.59536457, 0.00555846, -3.98845577, 0.99938095, 0.00519068, -0.00022927, 0.03479809, -0.00494022, 0.88067144, -0.49129325, 87.59200287, 1211.56689453, 38.09000015, 0.00000000
1, 1.2699, 127, 0.00611104, -0.86664879, -0.50689369, -0.25588730, 0.90936548, -0.91120172, 15.25766277, -60.56120300, 40.09120941, -0.59787834, 0.01799926, -3.98509026, 0.99938178, 0.00520883, -0.00033838, 0.03476816, -0.00587764, 0.87706715, -0.49305201, 87.59200287, 1211.56689453, 38.09000015, 0.00000000
1, 1.2799, 128, 0.00652036, -0.86600190, -0.50891536, -0.47184736, 0.99344110, -0.90877336, 15.25766277, -60.56120300, 40.09120941, -0.60254163, 0.03083006, -3.98096681, 0.99938285, 0.00524562, -0.00045151, 0.03473160, -0.00606970, 0.87648201, -0.49102962, 87.59200287, 1211.56689453, 38.09000015, 0.00000000
1, 1.2899, 129, 0.00788524, -0.86500239, -0.51113933, -0.63388902, 0.95672309, -0.83873618, 14.92858315, -61.00099564, 40.43378448, -0.60882199, 0.04287741, -3.97677279, 0.99938381, 0.00529677, -0.00055829, 0.03469443, -0.00721335, 0.87558746, -0.48880440, 87.59200287, 1211.56689453, 38.09000015, 0.00000000
1, 1.2999, 130, 0.00709273, -0.86505437, -0.51247144, -0.74324590, 0.98846531, -0.73226434, 15.22109699, -60.86905289, 40.62410736, -0.61617726, 0.05415687, -3.97175980, 0.99938500, 0.00535753, -0.00065865, 0.03465015, -0.00622169, 0.87576073, -0.48747087, 87.59200287, 1211.56689453, 38.09000015, 0.00000000
1, 1.3099, 131, 0.00735647, -0.86504668, -0.51074547, -0.76258367, 1.14269960, -0.72896260, 15.73299980, -60.73711777, 40.35765839, -0.64207780, 0.05876101, -4.01395750, 0.99937087, 0.00558176, -0.00070869, 0.03501779, -0.00630823, 0.87595916, -0.48919439, 87.59200287, 1211.56689453, 38.09000015, 0.00000000
1, 1.3199, 132, 0.00669267, -0.86398417, -0.51108354, -0.63883555, 1.41898847, -0.77626759, 15.80613136, -61.92455292, 40.64313889, -0.64833856, 0.07258496, -4.00547361, 0.99937308, 0.00563220, -0.00083075, 0.03494307, -0.00551787, 0.87526214, -0.48885220, 87.59200287, 1211.56689453, 38.09000015, 0.00000000
1, 1.3299, 133, 0.00664374, -0.86553484, -0.51337206, -0.87064707, 1.43603134, -0.88066977, 15.80613136, -61.92455292, 40.64313889, -0.65692431, 0.08739455, -3.99732685, 0.99937510, 0.00570263, -0.00096212, 0.03487122, -0.00521743, 0.87694001, -0.48656183, 87.59200287, 1211.56689453, 38.09000015, 0.00000000
1, 1.3399, 134, 0.00742215, -0.86381465, -0.51347429, -0.70905292, 1.33352149, -0.83058447, 15.07484055, -61.00099564, 40.37668991, -0.66390508, 0.10125171, -3.98983836, 0.99937689, 0.00575936, -0.00108472, 0.03480515, -0.00574574, 0.87536025, -0.48645759, 87.59200287, 1211.56689453, 38.09000015, 0.00000000
1, 1.3499, 135, 0.00674567, -0.86305845, -0.51175326, -0.40090227, 1.07976770, -0.90717548, 15.14796638, -60.95701218, 40.79539490, -0.66783470, 0.11450536, -3.98496556, 0.99937820, 0.00578965, -0.00120125, 0.03476194, -0.00482897, 0.87469226, -0.48817727, 87.59200287, 1211.56689453, 38.09000015, 0.00000000
1, 1.3599, 136, 0.00731274, -0.86114323, -0.51284099, -0.02532549, 1.02954447, -0.80391067, 15.25766277, -62.49628448, 41.04280853, -0.69581693, 0.11361031, -4.02751398, 0.99936378, 0.00603352, -0.00120418, 0.03513277, -0.00523633, 0.87292713, -0.48708743, 87.59200287, 1211.56689453, 38.09000015, 0.00000000
1, 1.3699, 137, 0.00815599, -0.85951054, -0.51312774, 0.54899096, 0.84393317, -0.72167873, 15.29422855, -62.10047150, 40.85249329, -0.69026762, 0.12408286, -4.02389431, 0.99936503, 0.00598195, -0.00129362, 0.03510070, -0.00605595, 0.87159753, -0.48679698, 87.59200287, 1211.56689453, 38.09000015, 0.00000000
1, 1.3799, 138, 0.00941362, -0.85847700, -0.51372200, 0.71174401, 0.82947934, -0.81037211, 15.29422855, -62.10047150, 40.85249329, -0.68309832, 0.13524865, -4.02086258, 0.99936634, 0.00591604, -0.00138864, 0.03507376, -0.00712693, 0.87045604, -0.48620367, 87.59200287, 1211.56689453, 38.09000015, 0.00000000
1, 1.3899, 139, 0.01056534, -0.85951436, -0.51257843, 1.05031002, 0.98566765, -0.75538951, 15.44048595, -62.45230865, 40.83345795, -0.67252088, 0.14672372, -4.01625490, 0.99936819, 0.00582034, -0.00148525, 0.03503311, -0.00807931, 0.87131977, -0.48734882, 87.59200287, 1211.56689453, 38.09000015, 0.00000000
1, 1.3999, 140, 0.01140017, -0.85918933, -0.51309001, 0.95726830, 1.27570164, -0.69627225, 15.11140537, -61.83659363, 40.60507202, -0.66282332, 0.15913086, -4.00880909, 0.99937081, 0.00573208, -0.00159011, 0.03496766, -0.00870856, 0.87081546, -0.48683876, 87.59200287, 1211.56689453, 38.09000015, 0.00000000
1, 1.4099, 141, 0.01356142, -0.86086607, -0.51301694, 0.79392278, 1.46282947, -0.67426002, 15.03827477, -59.98946762, 40.90958786, -0.67506415, 0.17145111, -4.04802561, 0.99935806, 0.00583449, -0.00170329, 0.03530887, -0.01064737, 0.87243277, -0.48691195, 87.59200287, 1211.56689453, 38.09000015, 0.00000000
1, 1.4199, 142, 0.01390216, -0.86158222, -0.51172602, 0.61327064, 1.58120549, -0.65364027, 14.85545158, -60.78109741, 41.06184387, -0.66876435, 0.18501829, -4.03767824, 0.99936128, 0.00577553, -0.00181915, 0.03521803, -0.01076075, 0.87329650, -0.48820043, 87.59200287, 1211.56689453, 38.09000015, 0.00000000
1, 1.4299, 143, 0.01278251, -0.86041671, -0.51323754, 0.54199696, 1.47715294, -0.62045306, 14.85545158, -60.78109741, 41.06184387, -0.66318053, 0.19777615, -4.02806187, 0.99936438, 0.00572307, -0.00192822, 0.03513360, -0.00941111, 0.87202567, -0.48668933, 87.59200287, 1211.56689453, 38.09000015, 0.00000000
1, 1.4399, 144, 0.01076504, -0.86152524, -0.51049834, 0.27597079, 1.33982646, -0.74557436, 15.14796638, -60.73711777, 41.02378082, -0.66029149, 0.21093272, -4.02022219, 0.99936682, 0.00569398, -0.00204168, 0.03506461, -0.00717043, 0.87307119, -0.48942852, 87.59200287, 1211.56689453, 38.09000015, 0.00000000
1, 1.4499, 145, 0.00855520, -0.86315602, -0.50964189, 0.40024695, 1.23531580, -0.58994704, 15.44048595, -61.08895111, 40.70023346, -0.65615481, 0.22221914, -4.01252890, 0.99936914, 0.00565459, -0.00213846, 0.03499702, -0.00474955, 0.87463522, -0.49028492, 87.59200287, 1211.56689453, 38.09000015, 0.00000000
1, 1.4599, 146, 0.00875533, -0.86092412, -0.51183903, 0.52590799, 1.16711628, -0.55660880, 14.81888676, -60.60517502, 40.09120941, -0.67283618, 0.22115788, -4.05418730, 0.99935555, 0.00579962, -0.00213641, 0.03536007, -0.00480969, 0.87241244, -0.48808712, 87.59200287, 1211.56689453, 38.09000015, 0.00000000
1, 1.4699, 147, 0.00957476, -0.86081648, -0.51013708, 0.61631471, 0.97799289, -0.49054837, 14.85545158, -60.38528061, 40.52894592, -0.66657358, 0.23029973, -4.04825449, 0.99935758, 0.00574229, -0.00221391, 0.03530797, -0.00561344, 0.87248909, -0.48978692, 87.59200287, 1211.56689453, 38.09000015, 0.00000000
1, 1.4799, 148, 0.01136413, -0.86171514, -0.51144701, 0.49177974, 1.03018570, -0.59453970, 15.22109699, -60.38528061, 40.56701279, -0.66155332, 0.24059576, -4.04237747, 0.99935949, 0.00569545, -0.00230186, 0.03525630, -0.00723176, 0.87329775, -0.48847738, 87.59200287, 1211.56689453, 38.09000015, 0.00000000
1, 1.4899, 149, 0.00930641, -0.86152828, -0.51365274, 0.86626291, 1.10003197, -0.48874739, 15.22109699, -61.26486588, 40.56701279, -0.65276653, 0.25032917, -4.03540754, 0.99936187, 0.00561597, -0.00238370, 0.03519520, -0.00500125, 0.87298501, -0.48627239, 87.59200287, 1211.56689453, 38.09000015, 0.00000000
1, 1.4999, 150, 0.00848370, -0.86097807, -0.51255006, 1.06191504, 1.16904449, -0.41758192, 14.78232574, -61.39680099, 40.47185135, -0.64200032, 0.25979045, -4.02751493, 0.99936461, 0.00551934, -0.00246253, 0.03512612, -0.00401098, 0.87225085, -0.48737639, 87.59200287, 1211.56689453, 38.09000015, 0.00000000
1, 1.5099, 151, 0.00874572, -0.86399156, -0.50866127, 0.95151818, 1.23423243, -0.25766885, 15.22109699, -60.07742691, 40.60507202, -0.64907163, 0.25914338, -4.06798649, 0.99935186, 0.00558034, -0.00246102, 0.03547895, -0.00416309, 0.87515831, -0.49126589, 87.59200287, 1211.56689453, 38.09000015, 0.00000000
1, 1.5199, 152, 0.01156864, -0.86686528, -0.51138937, 1.23570180, 1.31995487, -0.11610968, 15.65986919, -63.33188629, 40.37668991, -0.63652581, 0.26674205, -4.05729532, 0.99935567, 0.00546881, -0.00252290, 0.03538560, -0.00695797, 0.87806588, -0.48853719, 87.59200287, 1211.56689453, 38.09000015, 0.00000000
1, 1.5299, 153, 0.01165649, -0.87108874, -0.51024950, 1.61563253, 0.98014033, -0.14199474, 15.29422855, -61.79261780, 40.79539490, -0.62022400, 0.27286541, -4.04973555, 0.99935859, 0.00532492, -0.00257091, 0.03531974, -0.00693563, 0.88202119, -0.48967960, 87.59200287, 1211.56689453, 38.09000015, 0.00000000
1, 1.5399, 154, 0.01146184, -0.87221670, -0.51438272, 1.06174755, 0.89144796, -0.23005608, 15.29422855, -61.79261780, 40.79539490, -0.60948700, 0.27930462, -4.04329109, 0.99936098, 0.00522944, -0.00262347, 0.03526348, -0.00663431, 0.88291019, -0.48554844, 87.59200287, 1211.56689453, 38.09000015, 0.00000000
1, 1.5499, 155, 0.01295787, -0.87302190, -0.51412600, 0.18330547, 1.02349579, -0.33006191, 15.00170898, -62.14445114, 40.66217041, -0.60752994, 0.28728086, -4.03609753, 0.99936312, 0.00521009, -0.00269210, 0.03520042, -0.00799641, 0.88363111, -0.48580545, 87.59200287, 1211.56689453, 38.09000015, 0.00000000
1, 1.5599, 156, 0.01253903, -0.86947131, -0.51148981, -0.15658045, 1.03912175, -0.39900661, 14.85545158, -62.32036591, 40.43378448, -0.63425475, 0.28538209, -4.07743740, 0.99934912, 0.00544277, -0.00268571, 0.03556040, -0.00747387, 0.88020194, -0.48843977, 87.59200287, 1211.56689453, 38.09000015, 0.00000000
1, 1.5699, 157, 0.01507250, -0.86745417, -0.50744778, 0.06189091, 0.97535092, -0.59437716, 14.85545158, -61.35282516, 40.77635956, -0.63354522, 0.29540703, -4.07197905, 0.99935061, 0.00543360, -0.00277266, 0.03551233, -0.00997961, 0.87851894, -0.49247804, 87.59200287, 1211.56689453, 38.09000015, 0.00000000
1, 1.5799, 158, 0.01624485, -0.86527294, -0.50741935, 0.19154470, 0.49577162, -0.58727819, 14.89201736, -60.25334549, 40.37668991, -0.63159567, 0.30297357, -4.07063961, 0.99935102, 0.00541429, -0.00283798, 0.03550032, -0.01100590, 0.87630820, -0.49250606, 87.59200287, 1211.56689453, 38.09000015, 0.00000000
1, 1.5899, 159, 0.01579734, -0.86206859, -0.50804734, 0.20892130, 0.52993125, -0.56903487, 14.89201736, -60.25334549, 40.37668991, -0.62947667, 0.31055233, -4.06892204, 0.99935144, 0.00539350, -0.00290334, 0.03548503, -0.01042805, 0.87306863, -0.49187768, 87.59200287, 1211.56689453, 38.09000015, 0.00000000
1, 1.5999, 160, 0.01540044, -0.86087179, -0.51090461, 0.29856279, 0.47860330, -0.53523165, 15.33078861, -60.25334549, 40.39572144, -0.62645960, 0.31757551, -4.06749678, 0.99935192, 0.00536505, -0.00296359, 0.03547233, -0.00990692, 0.87182695, -0.48902038, 87.59200287, 1211.56689453, 38.09000015, 0.00000000
1, 1.6099, 161, 0.01607632, -0.86112690, -0.51348358, 0.13627365, 0.68431658, -0.60072339, 15.33078861, -62.14445114, 40.75733185, -0.66296154, 0.31949595, -4.11224318, 0.99933624, 0.00568162, -0.00299385, 0.03586152, -0.01047369, 0.87220877, -0.48643926, 87.59200287, 1211.56689453, 38.09000015, 0.00000000
1, 1.6199, 162, 0.01559523, -0.86117053, -0.51505834, 0.17202921, 0.85784495, -0.70265454, 15.51361179, -62.45230865, 40.47185135, -0.66116482, 0.32987413, -4.10836554, 0.99933720, 0.00566280, -0.00308360, 0.03582722, -0.00991105, 0.87272143, -0.48485875, 87.59200287, 1211.56689453, 38.09000015, 0.00000000
1, 1.6299, 163, 0.01437190, -0.85993272, -0.51543206, 0.22519901, 0.92687804, -0.70136583, 14.70919418, -63.63974380, 40.45281982, -0.65881842, 0.34057865, -4.10386610, 0.99933857, 0.00563912, -0.00317600, 0.03578749, -0.00849874, 0.87145048, -0.48448431, 87.59200287, 1211.56689453, 38.09000015, 0.00000000
1, 1.6399, 164, 0.01246786, -0.85911292, -0.51504701, 0.27961853, 0.85868907, -0.70296597, 14.70919418, -63.63974380, 40.45281982, -0.65595013, 0.35095471, -4.09998751, 0.99933958, 0.00561097, -0.00326540, 0.03575322, -0.00640295, 0.87058359, -0.48486882, 87.59200287, 1211.56689453, 38.09000015, 0.00000000
1, 1.6499, 165, 0.01208986, -0.85928798, -0.51394475, 0.51380676, 0.68841714, -0.67210561, 14.78232574, -61.13293076, 40.16733932, -0.65076059, 0.36021841, -4.09744740, 0.99934036, 0.00556289, -0.00334445, 0.03573075, -0.00586324, 0.87068057, -0.48597100, 87.59200287, 1211.56689453, 38.09000015, 0.00000000
1, 1.6599, 166, 0.01194845, -0.85979867, -0.51456529, 0.83422005, 0.65349191, -0.48045900, 15.36735439, -60.42926025, 40.58604431, -0.67407107, 0.35575861, -4.14310646, 0.99932504, 0.00576625, -0.00331512, 0.03612849, -0.00563008, 0.87120712, -0.48534966, 87.59200287, 1211.56689453, 38.09000015, 0.00000000
1, 1.6699, 167, 0.01140436, -0.85997093, -0.51577240, 0.92382413, 0.74081886, -0.53163213, 15.44048595, -61.22089005, 40.47185135, -0.66475624, 0.36406747, -4.13947535, 0.99932641, 0.00568250, -0.00338446, 0.03609666, -0.00510365, 0.87163430, -0.48413968, 87.59200287, 1211.56689453, 38.09000015, 0.00000000
1, 1.6799, 168, 0.01058520, -0.86162090, -0.51828545, 1.02803481, 0.78968275, -0.31998396, 15.25766277, -61.83659363, 40.83345795, -0.65437114, 0.37079221, -4.13437748, 0.99932843, 0.00558997, -0.00343959, 0.03605217, -0.00415839, 0.87311387, -0.48162782, 87.59200287, 1211.56689453, 38.09000015, 0.00000000
1, 1.6899, 169, 0.01139499, -0.86090368, -0.51657921, 1.11656618, 0.80639273, -0.24959031, 15.25766277, -61.83659363, 40.83345795, -0.64308739, 0.37698296, -4.12879038, 0.99933052, 0.00548979, -0.00348976, 0.03600347, -0.00485682, 0.87220305, -0.48333555, 87.59200287, 1211.56689453, 38.09000015, 0.00000000
1, 1.6999, 170, 0.01130297, -0.86178231, -0.51504809, 1.11587107, 0.90959591, -0.26499680, 15.29422855, -60.69313812, 40.26249695, -0.63180387, 0.38381976, -4.12238455, 0.99933296, 0.00538943, -0.00354554, 0.03594762, -0.00465209, 0.87289017, -0.48486811, 87.59200287, 1211.56689453, 38.09000015, 0.00000000
1, 1.7099, 171, 0.01205241, -0.86228728, -0.51125902, 1.33460617, 0.65542525, -0.35890129, 15.36735439, -61.52874374, 40.31959152, -0.64093691, 0.38164449, -4.16713142, 0.99931836, 0.00546839, -0.00353157, 0.03633767, -0.00531603, 0.87327152, -0.48865801, 87.59200287, 1211.56689453, 38.09000015, 0.00000000
1, 1.7199, 172, 0.01276945, -0.86305130, -0.51045668, 1.42371428, 0.44742998, -0.18776372, 15.00170898, -60.16538239, 40.14830399, -0.62664831, 0.38551170, -4.16439295, 0.99931985, 0.00534264, -0.00356063, 0.03631404, -0.00606280, 0.87408137, -0.48946008, 87.59200287, 1211.56689453, 38.09000015, 0.00000000
1, 1.7299, 173, 0.01449586, -0.86464334, -0.51035690, 1.47685146, 0.41240025, -0.11834950, 15.40392017, -60.38528061, 40.62410736, -0.61182052, 0.38858861, -4.16160631, 0.99932134, 0.00521244, -0.00358264, 0.03629005, -0.00773222, 0.87542015, -0.48956215, 87.59200287, 1211.56689453, 38.09000015, 0.00000000
1, 1.7399, 174, 0.01464874, -0.86562234, -0.51196218, 1.49518192, 0.39567474, -0.13633555, 15.40392017, -60.38528061, 40.62410736, -0.59681535, 0.39174557, -4.15905333, 0.99932277, 0.00508066, -0.00360531, 0.03626812, -0.00783171, 0.87613881, -0.48795924, 87.59200287, 1211.56689453, 38.09000015, 0.00000000
1, 1.7499, 175, 0.01602374, -0.86620450, -0.51244366, 1.13793528, 0.42917243, -0.25758630, 15.73299980, -63.15597153, 40.66217041, -0.58538127, 0.39611468, -4.15677643, 0.99932384, 0.00497964, -0.00363969, 0.03624842, -0.00914094, 0.87649101, -0.48747975, 87.59200287, 1211.56689453, 38.09000015, 0.00000000
1, 1.7599, 176, 0.01546132, -0.86553246, -0.51306039, 1.24715245, 0.46661451, -0.39775977, 15.58674240, -61.74863815, 40.68120193, -0.59821725, 0.39581487, -4.20320272, 0.99930847, 0.00509020, -0.00364320, 0.03665289, -0.00851517, 0.87571836, -0.48686364, 87.59200287, 1211.56689453, 38.09000015, 0.00000000
1, 1.7699, 177, 0.01486493, -0.86546296, -0.51220489, 0.97842139, 0.46479076, -0.41455415, 15.40392017, -61.00099564, 40.66217041, -0.58839047, 0.40172321, -4.20137310, 0.99930936, 0.00500267, -0.00369150, 0.03663698, -0.00789435, 0.87579745, -0.48771742, 87.59200287, 1211.56689453, 38.09000015, 0.00000000
1, 1.7799, 178, 0.01551604, -0.86466146, -0.51019210, 1.26794517, 0.31409952, -0.50649971, 14.89201736, -61.52874374, 40.56701279, -0.57570863, 0.40767336, -4.20134401, 0.99930978, 0.00489017, -0.00373933, 0.03663686, -0.00843840, 0.87479711, -0.48973155, 87.59200287, 1211.56689453, 38.09000015, 0.00000000
1, 1.7899, 179, 0.01487145, -0.86400211, -0.51204050, 1.59062743, 0.29919255, -0.49022222, 15.00170898, -60.73711777, 40.77635956, -0.55981010, 0.41341051, -4.20140505, 0.99931020, 0.00474969, -0.00378428, 0.03663766, -0.00769278, 0.87387973, -0.48788497, 87.59200287, 1211.56689453, 38.09000015, 0.00000000
1, 1.7999, 180, 0.01624816, -0.86558533, -0.51086760, 1.73447859, 0.28345180, -0.50857162, 15.00170898, -60.73711777, 40.77635956, -0.54245752, 0.41923124, -4.20171309, 0.99931067, 0.00459649, -0.00382951, 0.03664067, -0.00897001, 0.87516654, -0.48906004, 87.59200287, 1211.56689453, 38.09000015, 0.00000000
1, 1.8099, 181, 0.01621078, -0.86478192, -0.51160067, 1.86017239, 0.31931522, -0.54335880, 16.13521194, -61.35282516, 40.70023346, -0.54541284, 0.42192450, -4.25013304, 0.99929488, 0.00461977, -0.00385589, 0.03706271, -0.00884201, 0.87414348, -0.48832834, 87.59200287, 1211.56689453, 38.09000015, 0.00000000
1, 1.8199, 182, 0.01548362, -0.86554837, -0.51201409, 1.91289425, 0.24912034, -0.42194775, 15.33078861, -61.70465851, 40.73830032, -0.52628154, 0.42682204, -4.25032806, 0.99929547, 0.00445134, -0.00389242, 0.03706485, -0.00806585, 0.87485498, -0.48791510, 87.59200287, 1211.56689453, 38.09000015, 0.00000000
1, 1.8299, 183, 0.01448831, -0.86550981, -0.51150161, 1.89409506, 0.31730419, -0.40287846, 15.44048595, -61.70465851, 40.39572144, -0.50733465, 0.43189052, -4.24982929, 0.99929619, 0.00428449, -0.00393047, 0.03706095, -0.00698695, 0.87448657, -0.48842996, 87.59200287, 1211.56689453, 38.09000015, 0.00000000
1, 1.8399, 184, 0.01389839, -0.86589897, -0.51055706, 1.66187358, 0.05646439, -0.30218187, 15.11140537, -60.86905289, 40.24346542, -0.49073532, 0.43479475, -4.25106955, 0.99929631, 0.00413876, -0.00395048, 0.03707222, -0.00632997, 0.87457174, -0.48937672, 87.59200287, 1211.56689453, 38.09000015, 0.00000000
1, 1.8499, 185, 0.01241670, -0.86647904, -0.50993127, 1.53815758, -0.11576157, -0.32300246, 15.11140537, -60.86905289, 40.24346542, -0.47541216, 0.43701944, -4.25388575, 0.99929583, 0.00400431, -0.00396502, 0.03709722, -0.00480270, 0.87487340, -0.49000454, 87.59200287, 1211.56689453, 38.09000015, 0.00000000
1, 1.8599, 186, 0.01206858, -0.86609066, -0.50974768, 1.62991691, -0.37263626, -0.31110537, 15.07484055, -61.04496765, 41.02378082, -0.48255399, 0.42754295, -4.30728865, 0.99927843, 0.00406785, -0.00388659, 0.03756303, -0.00447981, 0.87431347, -0.49018973, 87.59200287, 1211.56689453, 38.09000015, 0.00000000
1, 1.8699, 187, 0.01104441, -0.86724621, -0.51090556, 1.66468644, -0.25228551, -0.30868155, 14.92858315, -60.86905289, 40.77635956, -0.46598667, 0.42896268, -4.31122828, 0.99927771, 0.00392278, -0.00389367, 0.03759789, -0.00356800, 0.87548941, -0.48903257, 87.59200287, 1211.56689453, 38.09000015, 0.00000000
1, 1.8799, 188, 0.01224768, -0.86726648, -0.51043105, 1.66525745, -0.23427308, -0.36103952, 15.55017757, -62.71617889, 41.09990692, -0.44941530, 0.43092912, -4.31527948, 0.99927682, 0.00377749, -0.00390551, 0.03763371, -0.00473879, 0.87521803, -0.48950917, 87.59200287, 1211.56689453, 38.09000015, 0.00000000
1, 1.8899, 189, 0.01297290, -0.86700588, -0.50885206, 1.39756656, -0.26954269, -0.43127519, 15.40392017, -61.48476028, 40.87152100, -0.43553820, 0.43332991, -4.31993437, 0.99927574, 0.00365553, -0.00392204, 0.03767470, -0.00542838, 0.87469804, -0.49108988, 87.59200287, 1211.56689453, 38.09000015, 0.00000000
1, 1.8999, 190, 0.01212028, -0.86673671, -0.50735182, 1.43215847, 0.05864718, -0.54752934, 15.40392017, -61.48476028, 40.87152100, -0.42126277, 0.43836743, -4.32233095, 0.99927521, 0.00352930, -0.00396135, 0.03769591, -0.00450250, 0.87418061, -0.49259150, 87.59200287, 1211.56689453, 38.09000015, 0.00000000
1, 1.9099, 191, 0.01213899, -0.86588055, -0.50749928, 1.66518259, 0.04303678, -0.53099227, 15.51361179, -61.61669922, 40.89055252, -0.42663670, 0.43521529, -4.37291765, 0.99925840, 0.00357546, -0.00393721, 0.03813696, -0.00447172, 0.87314939, -0.49244493, 87.59200287, 1211.56689453, 38.09000015, 0.00000000
1, 1.9199, 192, 0.01057542, -0.86455333, -0.50806069, 1.64919102, 0.04518849, -0.67152452, 15.55017757, -61.39680099, 40.73830032, -0.41019818, 0.44126588, -4.37608099, 0.99925768, 0.00342999, -0.00398460, 0.03816491, -0.00291250, 0.87182069, -0.49188355, 87.59200287, 1211.56689453, 38.09000015, 0.00000000
1, 1.9299, 193, 0.01080669, -0.86581415, -0.51108247, 1.70137453, 0.06104401, -0.56588101, 15.29422855, -61.35282516, 40.54797745, -0.39324608, 0.44647986, -4.37858534, 0.99925709, 0.00328034, -0.00402449, 0.03818717, -0.00304852, 0.87279487, -0.48886302, 87.59200287, 1211.56689453, 38.09000015, 0.00000000
1, 1.9399, 194, 0.01009620, -0.86387157, -0.51119941, 1.80818272, 0.14765199, -0.56438702, 15.58674240, -62.01251602, 40.70023346, -0.37519792, 0.45211339, -4.38034344, 0.99925691, 0.00312102, -0.00406765, 0.03820297, -0.00223901, 0.87053823, -0.48874751, 87.59200287, 1211.56689453, 38.09000015, 0.00000000
1, 1.9499, 195, 0.01106136, -0.86541551, -0.50901538, 1.63245571, -0.00555085, -0.72527498, 15.58674240, -62.01251602, 40.70023346, -0.35895306, 0.45838296, -4.38420725, 0.99925584, 0.00297713, -0.00411700, 0.03823707, -0.00310412, 0.87178540, -0.49093264, 87.59200287, 1211.56689453, 38.09000015, 0.00000000
1, 1.9599, 196, 0.00975064, -0.86502117, -0.51210374, 1.63218093, -0.10990023, -0.63957644, 15.07484055, -62.36434555, 41.30925751, -0.37363580, 0.44822332, -4.43555975, 0.99923849, 0.00310675, -0.00403470, 0.03868464, -0.00176079, 0.87124717, -0.48784494, 87.59200287, 1211.56689453, 38.09000015, 0.00000000
1, 1.9699, 197, 0.00916766, -0.86467046, -0.50970763, 1.88266754, -0.07391164, -0.62200791, 15.03827477, -61.96853638, 40.85249329, -0.35489741, 0.45325583, -4.43953371, 0.99923748, 0.00294151, -0.00407236, 0.03871980, -0.00128823, 0.87098813, -0.49024135, 87.59200287, 1211.56689453, 38.09000015, 0.00000000
1, 1.9799, 198, 0.00622301, -0.86522067, -0.50451308, 2.04325438, -0.03891302, -0.58660686, 15.00170898, -62.23241043, 40.11024094, -0.33454087, 0.45815837, -4.44304705, 0.99923670, 0.00276222, -0.00410832, 0.03875104, 0.00173956, 0.87119478, -0.49543738, 87.59200287, 1211.56689453, 38.09000015, 0.00000000
1, 1.9899, 199, 0.00851789, -0.86753607, -0.50441235, 2.13091850, 0.04612151, -0.49719593, 15.25766277, -61.00099564, 41.02378082, -0.31328014, 0.46270177, -4.44538879, 0.99923617, 0.00257520, -0.00414080, 0.03877210, -0.00047308, 0.87314939, -0.49553955, 87.59200287, 1211.56689453, 38.09000015, 0.00000000
1, 1.9999, 200, 0.00873268, -0.87065321, -0.50569385, 2.68527222, 0.08335557, -0.41021782, 15.25766277, -61.00099564, 41.02378082, -0.28646034, 0.46668079, -4.44705200, 0.99923605, 0.00233993, -0.00416645, 0.03878748, -0.00061073, 0.87583292, -0.49425977, 87.59200287, 1211.56689453, 38.09000015, 0.00000000
1, 2.0099, 201, 0.00937703, -0.87348837, -0.50706095, 2.41543102, 0.14956979, -0.39042175, 14.74575996, -61.26486588, 41.53764343, -0.27804220, 0.45476857, -4.49570990, 0.99922013, 0.00226883, -0.00406069, 0.03921235, -0.00125653, 0.87828338, -0.49289459, 87.59200287, 1211.56689453, 38.09000015, 0.00000000
1, 2.0199, 202, 0.00867017, -0.87456173, -0.50929165, 1.51956367, 0.09136377, -0.40648252, 15.18453217, -61.61669922, 41.44248199, -0.26288497, 0.45875466, -4.49713135, 0.99921978, 0.00213525, -0.00409029, 0.03922519, -0.00068923, 0.87923068, -0.49066561, 87.59200287, 1211.56689453, 38.09000015, 0.00000000
1, 2.0299, 203, 0.00830104, -0.87258095, -0.50958920, 1.01768982, -0.01635173, -0.35447648, 15.33078861, -61.52874374, 40.81442642, -0.25275406, 0.46175605, -4.49915409, 0.99921918, 0.00204581, -0.00411303, 0.03924313, -0.00026303, 0.87705892, -0.49036843, 87.59200287, 1211.56689453, 38.09000015, 0.00000000
1, 2.0399, 204, 0.00732895, -0.86984766, -0.50588799, 0.21448259, 0.08590648, -0.18479696, 15.22109699, -62.80414200, 40.60507202, -0.25060564, 0.46379066, -4.49935865, 0.99921906, 0.00202637, -0.00413004, 0.03924495, 0.00075425, 0.87420368, -0.49406984, 87.59200287, 1211.56689453, 38.09000015, 0.00000000
1, 2.0499, 205, 0.00856647, -0.86548388, -0.50301248, -0.33764493, 0.05147937, 0.06913224, 15.22109699, -62.80414200, 40.60507202, -0.25395906, 0.46343613, -4.49851990, 0.99921930, 0.00205576, -0.00412808, 0.03923753, -0.00047892, 0.86990082, -0.49694505, 87.59200287, 1211.56689453, 38.09000015, 0.00000000
1, 2.0599, 206, 0.00892021, -0.86330968, -0.50133157, -0.03251197, -0.03246595, 0.10159034, 15.14796638, -62.01251602, 40.26249695, -0.40114293, 0.31523311, -4.54557800, 0.99920386, 0.00338876, -0.00288757, 0.03964722, -0.00148530, 0.86838698, -0.49862665, 87.59200287, 1211.56689453, 38.09000015, 0.00000000
1, 2.0699, 207, 0.00919600, -0.86157954, -0.50057769, -0.15903540, -0.13865978, 0.24037130, 14.85545158, -61.39680099, 40.49088287, -0.40273029, 0.31245816, -4.54557276, 0.99920386, 0.00340357, -0.00286392, 0.03964722, -0.00372200, 0.86859053, -0.49938273, 87.59200287, 1211.56689453, 38.09000015, 0.00000000
1, 2.0799, 208, 0.00968043, -0.86244953, -0.50497854, -0.10383930, -0.04989491, 0.08386385, 14.52637196, -61.39680099, 40.43378448, -0.40377006, 0.31148151, -4.54556513, 0.99920380, 0.00341297, -0.00285576, 0.03964716, -0.00424298, 0.86949438, -0.49498188, 87.59200287, 1211.56689453, 38.09000015, 0.00000000
1, 2.0899, 209, 0.01063607, -0.86263531, -0.50783086, -0.12059098, -0.15266567, 0.06417619, 15.22109699, -62.14445114, 40.98571396, -0.40499479, 0.31016561, -4.54655743, 0.99920344, 0.00342408, -0.00284474, 0.03965582, -0.00521218, 0.86969209, -0.49212947, 87.59200287, 1211.56689453, 38.09000015, 0.00000000
1, 2.0999, 210, 0.01047692, -0.86437708, -0.50772202, 0.07775036, -0.27118751, 0.06107751, 15.36735439, -62.23241043, 40.89055252, -0.40425420, 0.30828735, -4.54861736, 0.99920285, 0.00341822, -0.00282817, 0.03967386, -0.00508502, 0.87143970, -0.49223852, 87.59200287, 1211.56689453, 38.09000015, 0.00000000
1, 2.1099, 211, 0.00838259, -0.86709374, -0.50751823, 0.31134561, -0.26878551, 0.02525663, 15.36735439, -62.23241043, 40.89055252, -0.43850222, 0.26899695, -4.59926748, 0.99918503, 0.00372936, -0.00249908, 0.04011601, -0.00318425, 0.87428194, -0.49244237, 87.59200287, 1211.56689453, 38.09000015, 0.00000000
1, 2.1199, 212, 0.00759802, -0.86765945, -0.50519246, 0.90121228, -0.05830962, 0.02787671, 15.14796638, -61.39680099, 40.50991440, -0.42949015, 0.26846102, -4.59974909, 0.99918509, 0.00365096, -0.00249126, 0.04012042, -0.00291132, 0.87521899, -0.49476802, 87.59200287, 1211.56689453, 38.09000015, 0.00000000
1, 2.1299, 213, 0.00561950, -0.86890918, -0.50313079, 1.13256633, 0.27085474, -0.05380253, 15.22109699, -61.13293076, 40.68120193, -0.41813299, 0.27027231, -4.59781981, 0.99918610, 0.00355133, -0.00250302, 0.04010379, -0.00091553, 0.87628627, -0.49683094, 87.59200287, 1211.56689453, 38.09000015, 0.00000000
1, 2.1399, 214, 0.00305519, -0.87107390, -0.49963596, 1.28904164, 0.59573114, 0.09317531, 15.51361179, -62.10047150, 41.21409988, -0.40514627, 0.27241528, -4.59235048, 0.99918836, 0.00343747, -0.00251700, 0.04005631, 0.00168313, 0.87823141, -0.50032723, 87.59200287, 1211.56689453, 38.09000015, 0.00000000
1, 2.1499, 215, 0.00248202, -0.87240916, -0.50254399, 1.04006338, 0.47483835, 0.02108228, 15.25766277, -62.62821960, 41.23313141, -0.39467433, 0.27458921, -4.58826113, 0.99919009, 0.00334549, -0.00253217, 0.04002082, 0.00229916, 0.87935960, -0.49742037, 87.59200287, 1211.56689453, 38.09000015, 0.00000000
1, 2.1599, 216, 0.00418428, -0.87282276, -0.50178993, 0.44613910, 0.46761674, 0.18095258, 15.25766277, -62.62821960, 41.23313141, -0.40207231, 0.21983887, -4.63287878, 0.99917519, 0.00342832, -0.00205869, 0.04041142, 0.00037483, 0.87970299, -0.49817589, 87.59200287, 1211.56689453, 38.09000015, 0.00000000
1, 2.1699, 217, 0.00559966, -0.87426543, -0.50178480, 0.14168490, 0.39632747, 0.19796371, 14.78232574, -60.73711777, 40.58604431, -0.40058479, 0.22008765, -4.62848043, 0.99917674, 0.00341534, -0.00206021, 0.04037309, -0.00175950, 0.88126343, -0.49818334, 87.59200287, 1211.56689453, 38.09000015, 0.00000000
1, 2.1799, 218, 0.00672268, -0.87504792, -0.50137818, -0.17979580, 0.11791801, 0.28098568, 14.63606358, -61.35282516, 40.89055252, -0.40233859, 0.21823671, -4.62604332, 0.99917763, 0.00343133, -0.00204461, 0.04035187, -0.00290281, 0.88205457, -0.49858999, 87.59200287, 1211.56689453, 38.09000015, 0.00000000
1, 2.1899, 219, 0.00610731, -0.87460619, -0.49898180, -0.17979591, 0.11791803, 0.28098571, 15.51361179, -62.14445114, 41.51861191, -0.40409243, 0.21638249, -4.62360382, 0.99917841, 0.00344732, -0.00202899, 0.04033062, -0.00231780, 0.88164902, -0.50098622, 87.59200287, 1211.56689453, 38.09000015, 0.00000000
1, 2.1999, 220, 0.00611675, -0.87546718, -0.49849558, -0.08862916, 0.03371723, 0.22620158, 14.63606358, -61.08895111, 41.02378082, -0.40495989, 0.21459068, -4.62217426, 0.99917895, 0.00345554, -0.00201363, 0.04031819, -0.00235948, 0.88253438, -0.50147235, 87.59200287, 1211.56689453, 38.09000015, 0.00000000
1, 2.2099, 221, 0.00661024, -0.87234598, -0.49680629, -0.00148759, 0.25683361, 0.26578230, 14.63606358, -61.08895111, 41.02378082, -0.40605524, 0.17900129, -4.66883516, 0.99916285, 0.00347692, -0.00170511, 0.04072615, -0.00302990, 0.87941599, -0.50316226, 87.59200287, 1211.56689453, 38.09000015, 0.00000000
1, 2.2199, 222, 0.00635721, -0.87135565, -0.49800196, -0.05513110, 0.48197657, 0.11247507, 15.11140537, -63.24393463, 41.15700150, -0.40653354, 0.18042012, -4.66408730, 0.99916452, 0.00348066, -0.00171750, 0.04068470, -0.00321964, 0.87844664, -0.50196797, 87.59200287, 1211.56689453, 38.09000015, 0.00000000
1, 2.2299, 223, 0.00616903, -0.87013906, -0.49996448, -0.23743203, 0.75444090, 0.15391771, 15.14796638, -62.32036591, 40.94765091, -0.40877220, 0.18282682, -4.65674782, 0.99916703, 0.00349943, -0.00173906, 0.04062060, -0.00299874, 0.87725699, -0.50000513, 87.59200287, 1211.56689453, 38.09000015, 0.00000000
1, 2.2399, 224, 0.00710089, -0.86993033, -0.50075275, -0.52640092, 0.87111312, 0.22756805, 15.51361179, -62.62821960, 41.44248199, -0.41389892, 0.18516962, -4.64798403, 0.99916989, 0.00354344, -0.00176103, 0.04054403, -0.00388812, 0.87712032, -0.49921626, 87.59200287, 1211.56689453, 38.09000015, 0.00000000
1, 2.2499, 225, 0.00635779, -0.86940861, -0.50168020, -0.54634261, 0.90327209, 0.35135329, 14.59950256, -61.44078064, 40.64313889, -0.41920274, 0.18660939, -4.63832998, 0.99917316, 0.00358933, -0.00177516, 0.04045972, -0.00311085, 0.87668955, -0.49828809, 87.59200287, 1211.56689453, 38.09000015, 0.00000000
1, 2.2599, 226, 0.00818057, -0.86882210, -0.50239450, -0.51169723, 1.14483857, 0.28601268, 14.59950256, -61.44078064, 40.64313889, -0.43636048, 0.17973562, -4.67532301, 0.99915957, 0.00374080, -0.00172249, 0.04078224, -0.00493296, 0.87624878, -0.49757263, 87.59200287, 1211.56689453, 38.09000015, 0.00000000
1, 2.2699, 227, 0.00933198, -0.86838490, -0.50394797, -0.08114571, 0.99240732, 0.36938208, 15.11140537, -61.13293076, 40.73830032, -0.43700889, 0.18146247, -4.66487455, 0.99916333, 0.00374600, -0.00173744, 0.04069108, -0.00618176, 0.87601101, -0.49601793, 87.59200287, 1211.56689453, 38.09000015, 0.00000000
1, 2.2799, 228, 0.00902227, -0.86876178, -0.49958497, 0.22537243, 0.94477344, 0.27955124, 14.96514320, -63.28790665, 41.21409988, -0.43460160, 0.18372995, -4.65530586, 0.99916667, 0.00372435, -0.00175604, 0.04060760, -0.00582349, 0.87636685, -0.50038099, 87.59200287, 1211.56689453, 38.09000015, 0.00000000
1, 2.2899, 229, 0.01004121, -0.87060744, -0.49952555, 0.13585463, 0.87488580, 0.31351247, 15.80613136, -62.58424377, 41.29022598, -0.43309712, 0.18535753, -4.64618349, 0.99916995, 0.00371080, -0.00176941, 0.04052803, -0.00681391, 0.87817770, -0.50044060, 87.59200287, 1211.56689453, 38.09000015, 0.00000000
1, 2.2999, 230, 0.01062529, -0.87022942, -0.49976259, -0.05910265, 0.70267016, 0.25775346, 15.11140537, -63.15597153, 41.25216293, -0.43356508, 0.18660906, -4.63878965, 0.99917263, 0.00371455, -0.00178024, 0.04046351, -0.00737177, 0.87778193, -0.50020361, 87.59200287, 1211.56689453, 38.09000015, 0.00000000
1, 2.3099, 231, 0.01062139, -0.87159121, -0.50041854, -0.47123253, 0.61309743, 0.29228798, 15.11140537, -63.15597153, 41.25216293, -0.44520149, 0.17310067, -4.68002129, 0.99915773, 0.00382018, -0.00166794, 0.04082331, -0.00742248, 0.87923753, -0.49954706, 87.59200287, 1211.56689453, 38.09000015, 0.00000000
1, 2.3199, 232, 0.00882033, -0.87166107, -0.49957722, -0.59673703, 0.66414404, 0.25858858, 14.63606358, -62.45230865, 41.13796997, -0.45105684, 0.17415668, -4.67289925, 0.99916005, 0.00387097, -0.00167900, 0.04076108, -0.00579093, 0.87949312, -0.50038755, 87.59200287, 1211.56689453, 38.09000015, 0.00000000
1, 2.3299, 233, 0.00818886, -0.87200785, -0.49746355, -0.43227059, 0.70372742, 0.01282123, 14.67262936, -63.59576416, 41.06184387, -0.45527345, 0.17753991, -4.66666460, 0.99916208, 0.00390662, -0.00170978, 0.04070655, -0.00511322, 0.87993163, -0.50250030, 87.59200287, 1211.56689453, 38.09000015, 0.00000000
1, 2.3399, 234, 0.00640440, -0.87100577, -0.49692202, -0.36050674, 0.56563526, 0.09759000, 15.22109699, -62.80414200, 40.90958786, -0.45879561, 0.17950588, -4.66122723, 0.99916387, 0.00393672, -0.00172799, 0.04065901, -0.00328345, 0.87899399, -0.50304115, 87.59200287, 1211.56689453, 38.09000015, 0.00000000
1, 2.3499, 235, 0.00583031, -0.87189859, -0.49690393, -0.32142091, 0.53504968, -0.11411236, 14.74575996, -61.00099564, 41.38538742, -0.46193823, 0.18315698, -4.65710831, 0.99916518, 0.00396289, -0.00176080, 0.04062292, -0.00266032, 0.87993789, -0.50305873, 87.59200287, 1211.56689453, 38.09000015, 0.00000000
1, 2.3599, 236, 0.00744005, -0.87039351, -0.49610636, -0.05222103, 0.48541516, -0.09840129, 14.74575996, -61.00099564, 41.38538742, -0.46284735, 0.15909144, -4.70346212, 0.99914896, 0.00397872, -0.00155289, 0.04102793, -0.00433359, 0.87846231, -0.50385630, 87.59200287, 1211.56689453, 38.09000015, 0.00000000
1, 2.3699, 237, 0.00833226, -0.87029582, -0.49566516, -0.14103273, 0.60707349, -0.23619826, 14.70919418, -61.30884552, 40.77635956, -0.46418574, 0.16415702, -4.69934845, 0.99915034, 0.00398863, -0.00159740, 0.04099187, -0.00550535, 0.87838775, -0.50429815, 87.59200287, 1211.56689453, 38.09000015, 0.00000000
1, 2.3799, 238, 0.00953535, -0.87085474, -0.49780983, -0.30258939, 0.57092869, -0.20130719, 15.22109699, -61.22089005, 41.06184387, -0.46714658, 0.16874106, -4.69535637, 0.99915159, 0.00401286, -0.00163829, 0.04095685, -0.00662079, 0.87898582, -0.50215292, 87.59200287, 1211.56689453, 38.09000015, 0.00000000
1, 2.3899, 239, 0.01247288, -0.86905277, -0.49721098, -0.50068790, 0.68973708, -0.21578157, 14.52637196, -61.44078064, 41.42345047, -0.47207075, 0.17404111, -4.69037580, 0.99915308, 0.00405398, -0.00168608, 0.04091316, -0.00947002, 0.87725413, -0.50275093, 87.59200287, 1211.56689453, 38.09000015, 0.00000000
1, 2.3999, 240, 0.01210901, -0.86901289, -0.49816847, -0.64474916, 0.80925411, -0.24798466, 14.85545158, -62.49628448, 41.42345047, -0.47842380, 0.18021828, -4.68450689, 0.99915493, 0.00410726, -0.00174200, 0.04086167, -0.00900348, 0.87732118, -0.50179225, 87.59200287, 1211.56689453, 38.09000015, 0.00000000
1, 2.4099, 241, 0.01293904, -0.86929810, -0.50062293, -0.50115669, 0.74119538, -0.21469826, 14.48980618, -60.25334549, 41.25216293, -0.49335411, 0.17799202, -4.72705984, 0.99913913, 0.00423759, -0.00172949, 0.04123255, -0.00976552, 0.87774777, -0.49933636, 87.59200287, 1211.56689453, 38.09000015, 0.00000000
1, 2.4199, 242, 0.01074094, -0.87021154, -0.49883816, -0.39389604, 0.72431362, -0.18022478, 14.48980618, -60.25334549, 41.25216293, -0.49721029, 0.18315563, -4.72162056, 0.99914092, 0.00426944, -0.00177569, 0.04118487, -0.00757818, 0.87886870, -0.50111938, 87.59200287, 1211.56689453, 38.09000015, 0.00000000
1, 2.4299, 243, 0.01036751, -0.87069178, -0.49770725, 0.05430685, 0.71039146, -0.16431062, 14.85545158, -61.13293076, 41.27119446, -0.49657297, 0.18811810, -4.71627474, 0.99914283, 0.00426218, -0.00181853, 0.04113808, -0.00711725, 0.87936848, -0.50224984, 87.59200287, 1211.56689453, 38.09000015, 0.00000000
1, 2.4399, 244, 0.00827040, -0.86967379, -0.50046122, 0.68191189, 0.71531546, -0.16612747, 14.34354877, -62.45230865, 42.01344299, -0.48966944, 0.19311522, -4.71099329, 0.99914485, 0.00420028, -0.00185943, 0.04109195, -0.00493084, 0.87826908, -0.49949625, 87.59200287, 1211.56689453, 38.09000015, 0.00000000
1, 2.4499, 245, 0.00554441, -0.86920774, -0.49374938, 0.44854277, 0.66116852, -0.11381688, 15.22109699, -62.80414200, 41.44248199, -0.48510283, 0.19739147, -4.70587921, 0.99914682, 0.00415901, -0.00189489, 0.04104728, -0.00212960, 0.87769514, -0.50620878, 87.59200287, 1211.56689453, 38.09000015, 0.00000000
1, 2.4599, 246, 0.00749333, -0.87720281, -0.49338543, 0.10697551, 0.72682005, -0.09381316, 14.23385715, -60.29732513, 41.48054886, -0.46746439, 0.17433563, -4.75000381, 0.99913186, 0.00401283, -0.00168909, 0.04143313, -0.00411709, 0.88558233, -0.50657380, 87.59200287, 1211.56689453, 38.09000015, 0.00000000
1, 2.4699, 247, 0.00942111, -0.88033670, -0.49590984, 0.70019364, 0.54249567, -0.08192520, 14.23385715, -60.29732513, 41.48054886, -0.46038815, 0.17774145, -4.74579477, 0.99913359, 0.00394996, -0.00171609, 0.04139641, -0.00633978, 0.88843256, -0.50405264, 87.59200287, 1211.56689453, 38.09000015, 0.00000000
1, 2.4799, 248, 0.01058066, -0.88201344, -0.49086317, 0.95215690, 0.38951731, -0.05075574, 14.01446915, -60.60517502, 41.34732437, -0.45081857, 0.18011922, -4.74280357, 0.99913496, 0.00386571, -0.00173326, 0.04137039, -0.00744595, 0.88993913, -0.50910050, 87.59200287, 1211.56689453, 38.09000015, 0.00000000
1, 2.4899, 249, 0.01242423, -0.88267457, -0.49170932, 0.07524502, 0.24597457, -0.08624693, 14.74575996, -62.45230865, 41.23313141, -0.45004067, 0.18208577, -4.74110460, 0.99913555, 0.00385824, -0.00175007, 0.04135552, -0.00925747, 0.89052165, -0.50825489, 87.59200287, 1211.56689453, 38.09000015, 0.00000000
1, 2.4999, 250, 0.01406946, -0.88245219, -0.49270511, -1.03975642, 0.45880532, 0.00953087, 15.00170898, -62.27638626, 41.17603302, -0.46036306, 0.18428691, -4.73694086, 0.99913663, 0.00394752, -0.00177284, 0.04131898, -0.01086786, 0.89040059, -0.50725818, 87.59200287, 1211.56689453, 38.09000015, 0.00000000
1, 2.5099, 251, 0.01449822, -0.87971872, -0.49360389, -1.61566782, 0.71188152, -0.00096463, 14.70919418, -62.71617889, 41.63280487, -0.46733835, 0.18427451, -4.77886534, 0.99912125, 0.00400769, -0.00177671, 0.04168442, -0.01125590, 0.88789213, -0.50635749, 87.59200287, 1211.56689453, 38.09000015, 0.00000000
1, 2.5199, 252, 0.01283343, -0.87875396, -0.49250746, -1.47119164, 0.62752968, -0.02075839, 14.70919418, -62.71617889, 41.63280487, -0.48196301, 0.18757547, -4.77332735, 0.99912268, 0.00413409, -0.00181062, 0.04163578, -0.00958555, 0.88707149, -0.50745273, 87.59200287, 1211.56689453, 38.09000015, 0.00000000
1, 2.5299, 253, 0.01250592, -0.87576979, -0.48864359, -1.38082254, 0.57706136, -0.03967427, 15.47705078, -63.28790665, 41.40441895, -0.49568081, 0.19079015, -4.76833868, 0.99912393, 0.00425261, -0.00184344, 0.04159194, -0.00919284, 0.88433385, -0.51131427, 87.59200287, 1211.56689453, 38.09000015, 0.00000000
1, 2.5399, 254, 0.01042350, -0.87320793, -0.48870954, -1.48652053, 0.42241544, -0.07775869, 14.48980618, -62.32036591, 41.23313141, -0.51048917, 0.19356611, -4.76486492, 0.99912465, 0.00438077, -0.00187289, 0.04156131, -0.00706672, 0.88201320, -0.51124609, 87.59200287, 1211.56689453, 38.09000015, 0.00000000
1, 2.5499, 255, 0.00988126, -0.87111205, -0.49070036, -1.57352698, 0.37283260, -0.23673965, 14.30698395, -61.83659363, 41.53764343, -0.52619970, 0.19747999, -4.76260185, 0.99912483, 0.00451637, -0.00191262, 0.04154116, -0.00646194, 0.88019526, -0.50925249, 87.59200287, 1211.56689453, 38.09000015, 0.00000000
1, 2.5599, 256, 0.00909172, -0.87034237, -0.49390340, -1.58686721, 0.32610500, -0.53651249, 14.41668034, -61.35282516, 40.98571396, -0.54358441, 0.19655710, -4.80982876, 0.99910694, 0.00466749, -0.00191280, 0.04195267, -0.00561352, 0.87970221, -0.50604677, 87.59200287, 1211.56689453, 38.09000015, 0.00000000
1, 2.5699, 257, 0.00931756, -0.87142521, -0.49661630, -1.38778245, 0.26047418, -0.62639296, 14.41668034, -61.35282516, 40.98571396, -0.55747926, 0.20328894, -4.81050348, 0.99910605, 0.00478616, -0.00197661, 0.04195803, -0.00581332, 0.88107091, -0.50333101, 87.59200287, 1211.56689453, 38.09000015, 0.00000000
1, 2.5799, 258, 0.01047289, -0.87361693, -0.49375793, -1.31252098, 0.19586444, -0.83892131, 14.45324135, -60.95701218, 41.08087540, -0.57064426, 0.21154220, -4.81281757, 0.99910450, 0.00489788, -0.00205349, 0.04197762, -0.00683473, 0.88349414, -0.50618660, 87.59200287, 1211.56689453, 38.09000015, 0.00000000
1, 2.5899, 259, 0.01123393, -0.87671471, -0.49380261, -1.04306233, 0.19854781, -0.87484598, 15.25766277, -62.45230865, 41.38538742, -0.58112580, 0.22011214, -4.81531954, 0.99910295, 0.00498608, -0.00213216, 0.04199886, -0.00744954, 0.88679278, -0.50613952, 87.59200287, 1211.56689453, 38.09000015, 0.00000000
1, 2.5999, 260, 0.01015349, -0.87688279, -0.49381560, -0.88237315, 0.30301720, -0.89071965, 14.89201736, -61.48476028, 41.19506836, -0.58996797, 0.22933888, -4.81701374, 0.99910182, 0.00505976, -0.00221592, 0.04201305, -0.00621087, 0.88712311, -0.50612414, 87.59200287, 1211.56689453, 38.09000015, 0.00000000
1, 2.6099, 261, 0.01251461, -0.87695581, -0.49474418, -0.82769477, 0.28714612, -0.94395548, 15.29422855, -61.57272339, 41.46151352, -0.59028095, 0.23210908, -4.86810398, 0.99908298, 0.00506047, -0.00224244, 0.04245836, -0.00844140, 0.88730645, -0.50519395, 87.59200287, 1211.56689453, 38.09000015, 0.00000000
1, 2.6199, 262, 0.01233769, -0.87530524, -0.49519581, -0.82932222, 0.25054815, -0.80409360, 15.29422855, -61.57272339, 41.46151352, -0.59861058, 0.24032858, -4.86983776, 0.99908185, 0.00513001, -0.00231727, 0.04247293, -0.00819691, 0.88569850, -0.50474167, 87.59200287, 1211.56689453, 38.09000015, 0.00000000
1, 2.6299, 263, 0.01196068, -0.87397182, -0.49700567, -1.02591217, 0.28445235, -0.87309241, 14.63606358, -62.10047150, 41.61376953, -0.60889769, 0.24932253, -4.87160540, 0.99908048, 0.00521633, -0.00239958, 0.04248771, -0.00766479, 0.88453072, -0.50292933, 87.59200287, 1211.56689453, 38.09000015, 0.00000000
1, 2.6399, 264, 0.01135482, -0.87153482, -0.49942556, -1.15347564, 0.21170442, -0.68087012, 15.11140537, -62.10047150, 41.40441895, -0.62046242, 0.25628245, -4.87301207, 0.99907935, 0.00531454, -0.00246461, 0.04249939, -0.00692425, 0.88228363, -0.50050694, 87.59200287, 1211.56689453, 38.09000015, 0.00000000
1, 2.6499, 265, 0.01339864, -0.86980200, -0.49914464, -1.31504846, 0.12352818, -0.61191630, 15.22109699, -60.25334549, 42.07053757, -0.63364810, 0.26219681, -4.87482786, 0.99907792, 0.00542727, -0.00252115, 0.04251465, -0.00886236, 0.88077146, -0.50078487, 87.59200287, 1211.56689453, 38.09000015, 0.00000000
1, 2.6599, 266, 0.01472741, -0.86984855, -0.49882278, -1.31468236, 0.00259913, -0.56172496, 15.11140537, -61.61669922, 41.09990692, -0.64637524, 0.26392248, -4.92737103, 0.99905777, 0.00553643, -0.00254346, 0.04297239, -0.01011115, 0.88105476, -0.50110376, 87.59200287, 1211.56689453, 38.09000015, 0.00000000
1, 2.6699, 267, 0.01531617, -0.86992753, -0.49512470, -1.29947197, 0.08621126, -0.41938716, 15.11140537, -61.61669922, 41.09990692, -0.65939265, 0.26799661, -4.92854929, 0.99905658, 0.00564836, -0.00258392, 0.04298216, -0.01066301, 0.88135403, -0.50479913, 87.59200287, 1211.56689453, 38.09000015, 0.00000000
1, 2.6799, 268, 0.01428933, -0.87061250, -0.49320242, -1.15962970, 0.42981914, -0.37743449, 15.22109699, -62.01251602, 41.70893478, -0.67094964, 0.27341205, -4.92656708, 0.99905658, 0.00574713, -0.00263537, 0.04296434, -0.00955585, 0.88224477, -0.50671875, 87.59200287, 1211.56689453, 38.09000015, 0.00000000
1, 2.6899, 269, 0.01368843, -0.87203157, -0.49269608, -0.93142813, 0.75525832, -0.23066436, 14.92858315, -62.10047150, 41.63280487, -0.68016195, 0.27918023, -4.92105150, 0.99905813, 0.00582542, -0.00268883, 0.04291573, -0.00885298, 0.88384098, -0.50722253, 87.59200287, 1211.56689453, 38.09000015, 0.00000000
1, 2.6999, 270, 0.01230588, -0.87574673, -0.49427626, -0.90010756, 0.95822084, -0.03313178, 15.03827477, -61.66067886, 41.84215927, -0.68901110, 0.28426635, -4.91280937, 0.99906069, 0.00590086, -0.00273606, 0.04284340, -0.00737752, 0.88771611, -0.50564003, 87.59200287, 1211.56689453, 38.09000015, 0.00000000
1, 2.7099, 271, 0.01287521, -0.87697548, -0.49707878, -1.00571942, 0.82101411, -0.08842815, 14.89201736, -62.01251602, 41.00474548, -0.69278127, 0.28347954, -4.95527172, 0.99904460, 0.00593301, -0.00273281, 0.04321355, -0.00788882, 0.88907576, -0.50283557, 87.59200287, 1211.56689453, 38.09000015, 0.00000000
1, 2.7199, 272, 0.01212385, -0.87820047, -0.49743420, -1.43199825, 0.42369711, -0.13063355, 14.67262936, -61.08895111, 40.87152100, -0.70704406, 0.28673667, -4.95206547, 0.99904501, 0.00605620, -0.00276642, 0.04318509, -0.00713965, 0.89044690, -0.50247836, 87.59200287, 1211.56689453, 38.09000015, 0.00000000
1, 2.7299, 273, 0.01195271, -0.87908602, -0.49750397, -1.84074402, 0.04338689, -0.15495665, 14.67262936, -61.08895111, 40.87152100, -0.72545385, 0.28829628, -4.95221949, 0.99904394, 0.00621611, -0.00278696, 0.04318589, -0.00693114, 0.89162219, -0.50240487, 87.59200287, 1211.56689453, 38.09000015, 0.00000000
1, 2.7399, 274, 0.01167387, -0.87739104, -0.49697179, -2.26558900, -0.16152456, -0.42163935, 14.96514320, -62.36434555, 41.23313141, -0.74816626, 0.29114074, -4.95543671, 0.99904132, 0.00641298, -0.00282050, 0.04321322, -0.00661371, 0.89029628, -0.50293219, 87.59200287, 1211.56689453, 38.09000015, 0.00000000
1, 2.7499, 275, 0.01101272, -0.87525153, -0.49597907, -2.36759591, -0.39849576, -0.67240554, 15.33078861, -63.72769928, 41.30925751, -0.77196050, 0.29496086, -4.96193886, 0.99903744, 0.00661882, -0.00286315, 0.04326909, -0.00589465, 0.88856894, -0.50391912, 87.59200287, 1211.56689453, 38.09000015, 0.00000000
1, 2.7599, 276, 0.01097394, -0.87523544, -0.49508712, -2.33180285, -0.36362234, -0.68936008, 15.14796638, -62.80414200, 41.40441895, -0.79138196, 0.29351613, -5.01582527, 0.99901593, 0.00678734, -0.00286108, 0.04373848, -0.00580622, 0.88894421, -0.50480556, 87.59200287, 1211.56689453, 38.09000015, 0.00000000
1, 2.7699, 277, 0.01219641, -0.87534493, -0.49670526, -2.12876797, -0.45926040, -1.04355824, 15.25766277, -61.83659363, 41.38538742, -0.81283367, 0.30023864, -5.02475166, 0.99901104, 0.00697156, -0.00292842, 0.04381534, -0.00700200, 0.88939601, -0.50318253, 87.59200287, 1211.56689453, 38.09000015, 0.00000000
1, 2.7799, 278, 0.01394129, -0.87387931, -0.49716797, -2.21596789, -0.35303551, -1.28715456, 15.25766277, -61.83659363, 41.38538742, -0.83516598, 0.30959666, -5.03398657, 0.99900591, 0.00716243, -0.00301912, 0.04389467, -0.00859986, 0.88830453, -0.50271368, 87.59200287, 1211.56689453, 38.09000015, 0.00000000
1, 2.7899, 279, 0.01526243, -0.87303007, -0.49760902, -2.39301467, -0.33442411, -1.46200454, 14.59950256, -60.29732513, 41.34732437, -0.85928434, 0.32055286, -5.04390955, 0.99900043, 0.00736822, -0.00312451, 0.04397982, -0.00973706, 0.88786840, -0.50226563, 87.59200287, 1211.56689453, 38.09000015, 0.00000000
1, 2.7999, 280, 0.01747338, -0.87067521, -0.49993715, -2.33939767, -0.12616295, -1.58083844, 15.00170898, -60.29732513, 41.23313141, -0.88284856, 0.33358613, -5.05264139, 0.99899518, 0.00756840, -0.00324776, 0.04405442, -0.01174197, 0.88592875, -0.49993008, 87.59200287, 1211.56689453, 38.09000015, 0.00000000
1, 2.8099, 281, 0.01851502, -0.86986327, -0.50019687, -2.34156919, 0.16600730, -1.60984576, 15.47705078, -62.05649185, 41.76602936, -0.90622532, 0.34864148, -5.10629129, 0.99897259, 0.00776481, -0.00339163, 0.04452040, -0.01253149, 0.88553560, -0.49966240, 87.59200287, 1211.56689453, 38.09000015, 0.00000000
1, 2.8199, 282, 0.01872421, -0.87144822, -0.50002128, -2.16934490, 0.48844549, -1.30476284, 15.14796638, -61.26486588, 41.32828903, -0.92795503, 0.36237705, -5.10835934, 0.99896991, 0.00794884, -0.00351996, 0.04453680, -0.01249238, 0.88749784, -0.49983045, 87.59200287, 1211.56689453, 38.09000015, 0.00000000
1, 2.8299, 283, 0.01849740, -0.87282509, -0.49991059, -2.06231046, 0.52330858, -1.28677893, 15.14796638, -61.26486588, 41.32828903, -0.94861382, 0.37613344, -5.11005545, 0.99896753, 0.00812353, -0.00364803, 0.04454994, -0.01201770, 0.88924134, -0.49993366, 87.59200287, 1211.56689453, 38.09000015, 0.00000000
1, 2.8399, 284, 0.01819661, -0.87066936, -0.49765232, -2.13772798, 0.60507107, -1.07388949, 15.80613136, -60.86905289, 40.87152100, -0.96999615, 0.38846374, -5.10996246, 0.99896568, 0.00830513, -0.00376382, 0.04454752, -0.01149722, 0.88745636, -0.50218439, 87.59200287, 1211.56689453, 38.09000015, 0.00000000
1, 2.8499, 285, 0.01703652, -0.86902016, -0.49894547, -2.08464003, 0.41394719, -0.90228701, 15.25766277, -61.44078064, 41.11893845, -0.99085832, 0.39834455, -5.11065912, 0.99896365, 0.00848313, -0.00385812, 0.04455215, -0.01014264, 0.88618189, -0.50088346, 87.59200287, 1211.56689453, 38.09000015, 0.00000000
1, 2.8599, 286, 0.01412951, -0.86789382, -0.49764609, -1.95985734, 0.11932314, -0.66276664, 15.14796638, -63.24393463, 40.98571396, -1.00669408, 0.39882085, -5.15995932, 0.99894315, 0.00861933, -0.00387214, 0.04498136, -0.00712782, 0.88538378, -0.50217640, 87.59200287, 1211.56689453, 38.09000015, 0.00000000
1, 2.8699, 287, 0.01319935, -0.86665565, -0.49973962, -1.72639716, -0.05180842, -0.57918733, 15.73299980, -61.88057327, 41.44248199, -1.02402616, 0.40356129, -5.16309929, 0.99894047, 0.00876845, -0.00392051, 0.04500777, -0.00618817, 0.88441610, -0.50007802, 87.59200287, 1211.56689453, 38.09000015, 0.00000000
1, 2.8799, 288, 0.01296482, -0.86628461, -0.49832419, -1.50858319, -0.15103096, -0.70498794, 15.73299980, -61.88057327, 41.44248199, -1.03919899, 0.40887800, -5.16776896, 0.99893737, 0.00889847, -0.00397318, 0.04504753, -0.00586309, 0.88432169, -0.50148791, 87.59200287, 1211.56689453, 38.09000015, 0.00000000
1, 2.8899, 289, 0.01097113, -0.86810148, -0.49706671, -1.36490428, -0.20165035, -0.68891340, 15.07484055, -60.73711777, 41.46151352, -1.05296111, 0.41380793, -5.17281628, 0.99893415, 0.00901632, -0.00402196, 0.04509065, -0.00378249, 0.88638794, -0.50274020, 87.59200287, 1211.56689453, 38.09000015, 0.00000000
1, 2.8999, 290, 0.00936572, -0.87050855, -0.49670151, -1.24054718, -0.04600405, -0.70360005, 15.51361179, -61.92455292, 40.92861938, -1.06543934, 0.41964987, -5.17661047, 0.99893153, 0.00912266, -0.00407810, 0.04512280, -0.00207791, 0.88902390, -0.50310051, 87.59200287, 1211.56689453, 38.09000015, 0.00000000
1, 2.9099, 291, 0.00808353, -0.86870098, -0.49848711, -0.68574077, -0.11225973, -0.58364248, 15.40392017, -61.22089005, 41.09990692, -1.04964340, 0.39719671, -5.23106050, 0.99891174, 0.00899197, -0.00388042, 0.04559984, -0.00082731, 0.88727325, -0.50131404, 87.59200287, 1211.56689453, 38.09000015, 0.00000000
1, 2.9199, 292, 0.00854029, -0.87172115, -0.49201164, -0.97259736, 0.04158356, -0.68500012, 15.03827477, -60.91303253, 41.17603302, -1.05942941, 0.40331963, -5.23404932, 0.99890971, 0.00907473, -0.00393793, 0.04562506, -0.00154301, 0.89013791, -0.50779426, 87.59200287, 1211.56689453, 38.09000015, 0.00000000
1, 2.9299, 293, 0.01074884, -0.87386876, -0.49298751, -1.43878567, 0.14198855, -0.75177616, 15.03827477, -60.91303253, 41.17603302, -1.07387471, 0.41052234, -5.23642349, 0.99890745, 0.00919770, -0.00400666, 0.04564467, -0.00363004, 0.89251488, -0.50681329, 87.59200287, 1211.56689453, 38.09000015, 0.00000000
1, 2.9399, 294, 0.01411591, -0.87741756, -0.49294543, -1.12054372, 0.39923355, -0.58913678, 15.11140537, -61.79261780, 40.90958786, -1.08506227, 0.41762802, -5.23583031, 0.99890655, 0.00929241, -0.00407300, 0.04563850, -0.00687752, 0.89628637, -0.50685036, 87.59200287, 1211.56689453, 38.09000015, 0.00000000
1, 2.9499, 295, 0.01534383, -0.88046706, -0.48975396, -1.16067469, 0.70598274, -0.47709513, 15.44048595, -62.23241043, 41.27119446, -1.09658730, 0.42532530, -5.23200369, 0.99890685, 0.00938994, -0.00414438, 0.04560408, -0.00797695, 0.89951301, -0.51003754, 87.59200287, 1211.56689453, 38.09000015, 0.00000000
1, 2.9599, 296, 0.01563443, -0.88330591, -0.49318641, -2.11365056, 0.90349996, -0.41729170, 15.36735439, -60.86905289, 41.21409988, -1.10531020, 0.43063155, -5.27506304, 0.99888885, 0.00946229, -0.00419766, 0.04597867, -0.00813320, 0.90260720, -0.50659919, 87.59200287, 1211.56689453, 38.09000015, 0.00000000
1, 2.9699, 297, 0.01664274, -0.88293844, -0.49234203, -2.86809659, 1.06940544, -0.42907360, 15.11140537, -60.73711777, 40.89055252, -1.13383901, 0.43976048, -5.26764393, 0.99888915, 0.00970758, -0.00428805, 0.04591214, -0.00902980, 0.90253597, -0.50743693, 87.59200287, 1211.56689453, 38.09000015, 0.00000000
1, 2.9799, 298, 0.01431018, -0.87925035, -0.49055648, -2.54359317, 0.93528879, -0.46804276, 15.11140537, -60.73711777, 40.89055252, -1.15914917, 0.44854221, -5.26161480, 0.99888909, 0.00992491, -0.00437422, 0.04585785, -0.00653852, 0.89932299, -0.50921178, 87.59200287, 1211.56689453, 38.09000015, 0.00000000
1, 2.9899, 299, 0.01106675, -0.87676704, -0.48860493, -1.82670808, 0.76709604, -0.33314589, 15.18453217, -60.34130478, 41.13796997, -1.17730653, 0.45530835, -5.25645876, 0.99888933, 0.01008068, -0.00444001, 0.04581159, -0.00316205, 0.89720333, -0.51115501, 87.59200287, 1211.56689453, 38.09000015, 0.00000000
1, 2.9999, 300, 0.00745026, -0.87618065, -0.48657876, -1.40930283, 0.41212952, -0.46493399, 15.47705078, -61.26486588, 40.83345795, -1.19137299, 0.46141481, -5.25508451, 0.99888849, 0.01020090, -0.00449875, 0.04579851, 0.00056515, 0.89688325, -0.51317477, 87.59200287, 1211.56689453, 38.09000015, 0.00000000
1, 3.0099, 301, 0.00593810, -0.87493509, -0.48575559, -1.53374624, 0.23904385, -0.43303555, 15.84269142, -62.67220306, 41.02378082, -1.17453551, 0.44585010, -5.30510092, 0.99887043, 0.01005846, -0.00436073, 0.04623657, 0.00208031, 0.89574534, -0.51399571, 87.59200287, 1211.56689453, 38.09000015, 0.00000000
1, 3.0199, 302, 0.00563532, -0.87460840, -0.48351046, -1.96430874, 0.09672592, -0.32924029, 16.17177200, -62.80414200, 41.08087540, -1.19419336, 0.44918308, -5.30568409, 0.99886835, 0.01022845, -0.00439777, 0.04624060, 0.00218549, 0.89531231, -0.51624465, 87.59200287, 1211.56689453, 38.09000015, 0.00000000
1, 3.0299, 303, 0.00606978, -0.87548327, -0.48566580, -2.21661758, 0.17994708, -0.29156202, 15.22109699, -61.70465851, 40.87152100, -1.21635509, 0.45261773, -5.30532598, 0.99886632, 0.01042025, -0.00443662, 0.04623630, 0.00180720, 0.89656377, -0.51408094, 87.59200287, 1211.56689453, 38.09000015, 0.00000000
1, 3.0399, 304, 0.00802015, -0.87765950, -0.48898306, -2.03940892, -0.09853487, 0.03602892, 15.22109699, -61.70465851, 40.87152100, -1.23675728, 0.45181334, -5.30571604, 0.99886435, 0.01059840, -0.00443787, 0.04623899, -0.00012366, 0.89911371, -0.51075554, 87.59200287, 1211.56689453, 38.09000015, 0.00000000
1, 3.0499, 305, 0.00951555, -0.87894154, -0.49140665, -1.66351974, -0.18306366, 0.13857147, 15.18453217, -61.39680099, 40.70023346, -1.25340807, 0.44969341, -5.30636406, 0.99886256, 0.01074437, -0.00442617, 0.04624420, -0.00164836, 0.90071130, -0.50832546, 87.59200287, 1211.56689453, 38.09000015, 0.00000000
1, 3.0599, 306, 0.00862323, -0.88227701, -0.48947111, -0.94923699, -0.14628272, 0.33052045, 15.58674240, -61.08895111, 40.89055252, -1.17569339, 0.40650025, -5.36004210, 0.99884909, 0.01008253, -0.00402303, 0.04671901, -0.00099191, 0.90387976, -0.51026618, 87.59200287, 1211.56689453, 38.09000015, 0.00000000
1, 3.0699, 307, 0.00848591, -0.88333529, -0.48228037, -0.53960729, 0.21773438, 0.30176350, 15.95238781, -62.05649185, 41.46151352, -1.18102574, 0.40501511, -5.35656881, 0.99885011, 0.01012974, -0.00401195, 0.04668868, -0.00141095, 0.90391439, -0.51748282, 87.59200287, 1211.56689453, 38.09000015, 0.00000000
1, 3.0799, 308, 0.00699885, -0.88205916, -0.47354925, -0.83276278, 0.90159422, 0.31703779, 15.55017757, -61.66067886, 41.00474548, -1.18916106, 0.40686795, -5.34708118, 0.99885321, 0.01020023, -0.00403057, 0.04660553, 0.00008832, 0.90275323, -0.52621150, 87.59200287, 1211.56689453, 38.09000015, 0.00000000
1, 3.0899, 309, 0.00576170, -0.88034034, -0.46955052, -1.32411933, 1.63479185, 0.36911246, 15.55017757, -61.66067886, 41.00474548, -1.20208251, 0.41200182, -5.33094788, 0.99885845, 0.01031134, -0.00407912, 0.04646397, 0.00139208, 0.90122277, -0.53020579, 87.59200287, 1211.56689453, 38.09000015, 0.00000000
1, 3.0999, 310, 0.00337903, -0.88277072, -0.47236314, -1.99584270, 2.10527945, 0.66231233, 15.69643497, -61.08895111, 41.06184387, -1.22159255, 0.41701037, -5.30918980, 0.99886531, 0.01048016, -0.00412870, 0.04627314, 0.00386587, 0.90395784, -0.52738619, 87.59200287, 1211.56689453, 38.09000015, 0.00000000
1, 3.1099, 311, 0.00324589, -0.88776380, -0.47292346, -2.48179531, 2.03000450, 0.83799970, 15.69643497, -61.13293076, 41.25216293, -1.22382760, 0.41001466, -5.33587694, 0.99885458, 0.01050152, -0.00407107, 0.04650635, 0.00402680, 0.90924102, -0.52681947, 87.59200287, 1211.56689453, 38.09000015, 0.00000000
1, 3.1199, 312, 0.00247041, -0.89464527, -0.47815034, -2.80165958, 1.49344349, 0.96832430, 15.03827477, -60.42926025, 40.83345795, -1.25148427, 0.40928325, -5.31771708, 0.99885941, 0.01074354, -0.00407422, 0.04634714, 0.00468350, 0.91630101, -0.52158952, 87.59200287, 1211.56689453, 38.09000015, 0.00000000
1, 3.1299, 313, 0.00085941, -0.89927459, -0.48392406, -3.43886542, 0.73537612, 0.84886688, 15.98895359, -61.79261780, 41.67086411, -1.28564775, 0.40572941, -5.30660868, 0.99886066, 0.01104316, -0.00405599, 0.04624945, 0.00624539, 0.92147040, -0.51580429, 87.59200287, 1211.56689453, 38.09000015, 0.00000000
1, 3.1399, 314, -0.00090905, -0.90451247, -0.49188843, -4.58186817, 0.24638118, 0.82450557, 15.98895359, -61.79261780, 41.67086411, -1.33133245, 0.39990848, -5.29968357, 0.99885917, 0.01144398, -0.00402300, 0.04618806, 0.00793171, 0.92743486, -0.50782418, 87.59200287, 1211.56689453, 38.09000015, 0.00000000
1, 3.1499, 315, -0.00208442, -0.90792841, -0.49291036, -5.98009300, -0.97398335, 0.27577785, 15.73299980, -60.60517502, 41.23313141, -1.39127111, 0.39258555, -5.30586958, 0.99885076, 0.01196918, -0.00398397, 0.04624066, 0.00898222, 0.93179822, -0.50678092, 87.59200287, 1211.56689453, 38.09000015, 0.00000000
1, 3.1599, 316, 0.00148534, -0.90762997, -0.49108464, -6.23364449, -2.05012751, -0.15037192, 15.29422855, -62.01251602, 40.87152100, -1.44343269, 0.37836012, -5.36938286, 0.99881977, 0.01242745, -0.00388791, 0.04679403, 0.00524588, 0.93255591, -0.50858200, 87.59200287, 1211.56689453, 38.09000015, 0.00000000
1, 3.1699, 317, 0.00491850, -0.90411508, -0.48643744, -5.37855864, -3.01721120, -0.41941640, 15.00170898, -60.38528061, 40.56701279, -1.49777269, 0.36653027, -5.39672995, 0.99880284, 0.01290503, -0.00381007, 0.04703191, 0.00155955, 0.92990792, -0.51320881, 87.59200287, 1211.56689453, 38.09000015, 0.00000000
1, 3.1799, 318, 0.00570583, -0.89856082, -0.48014304, -4.25922537, -3.32894731, -0.76338315, 16.02551460, -61.13293076, 41.15700150, -1.54099894, 0.35602507, -5.42865610, 0.99878490, 0.01328507, -0.00373994, 0.04730999, 0.00057248, 0.92518699, -0.51948273, 87.59200287, 1211.56689453, 38.09000015, 0.00000000
1, 3.1899, 319, 0.00465598, -0.89632916, -0.47364637, -3.82712603, -2.92475319, -1.14293039, 16.02551460, -61.13293076, 41.15700150, -1.57985711, 0.35082129, -5.45911694, 0.99876791, 0.01362493, -0.00371425, 0.04757484, 0.00149110, 0.92363530, -0.52596182, 87.59200287, 1211.56689453, 38.09000015, 0.00000000
1, 3.1999, 320, 0.00016275, -0.89429992, -0.47309628, -4.97618484, -2.10325980, -1.56160128, 16.02551460, -60.16538239, 41.09990692, -1.63011837, 0.35341915, -5.48452234, 0.99875116, 0.01406108, -0.00376088, 0.04779431, 0.00597470, 0.92239434, -0.52649015, 87.59200287, 1211.56689453, 38.09000015, 0.00000000
1, 3.2099, 321, -0.00168939, -0.89545369, -0.47515553, -7.03562975, -1.28407097, -2.27636600, 15.00170898, -62.01251602, 41.29022598, -1.68963885, 0.36044750, -5.55078220, 0.99871576, 0.01457468, -0.00385539, 0.04836893, 0.00796448, 0.92459434, -0.52440012, 87.59200287, 1211.56689453, 38.09000015, 0.00000000
1, 3.2199, 322, -0.00195614, -0.89886647, -0.47749051, -8.53536701, -1.39221442, -2.67835212, 15.11140537, -61.00099564, 40.60507202, -1.77548027, 0.37623194, -5.57539368, 0.99869382, 0.01531528, -0.00403248, 0.04857837, 0.00841252, 0.92927277, -0.52202618, 87.59200287, 1211.56689453, 38.09000015, 0.00000000
1, 3.2299, 323, -0.00270653, -0.90291917, -0.47635856, -8.72685337, -1.83772826, -2.81018066, 15.98895359, -60.95701218, 40.52894592, -1.86333001, 0.39080694, -5.60449600, 0.99866915, 0.01607365, -0.00420082, 0.04882681, 0.00944068, 0.93486381, -0.52310830, 87.59200287, 1211.56689453, 38.09000015, 0.00000000
1, 3.2399, 324, -0.00054213, -0.90694398, -0.47230235, -7.66028023, -2.72079849, -2.86716628, 15.98895359, -60.95701218, 40.52894592, -1.94068360, 0.40124243, -5.64160919, 0.99864197, 0.01674193, -0.00433015, 0.04914585, 0.00748273, 0.94031936, -0.52711630, 87.59200287, 1211.56689453, 38.09000015, 0.00000000
1, 3.2499, 325, 0.00169243, -0.90855700, -0.46641275, -6.14392519, -3.73728776, -2.94591141, 15.33078861, -60.82507324, 40.92861938, -2.00307012, 0.40701452, -5.68803358, 0.99861258, 0.01728134, -0.00441421, 0.04954717, 0.00537971, 0.94311857, -0.53296483, 87.59200287, 1211.56689453, 38.09000015, 0.00000000
1, 3.2599, 326, 0.00165252, -0.90397257, -0.45930359, -5.50574398, -5.05484676, -2.87009454, 15.18453217, -61.00099564, 40.64313889, -2.04449821, 0.40194014, -5.78933287, 0.99856210, 0.01764068, -0.00440349, 0.05042911, 0.00542228, 0.93946832, -0.54004121, 87.59200287, 1211.56689453, 38.09000015, 0.00000000
1, 3.2699, 327, 0.00128607, -0.89962298, -0.45703027, -6.10782480, -5.32805681, -3.24314046, 15.91582298, -60.51721954, 40.87152100, -2.10682440, 0.40187117, -5.85089779, 0.99852520, 0.01818145, -0.00444009, 0.05096319, 0.00572303, 0.93596393, -0.54228455, 87.59200287, 1211.56689453, 38.09000015, 0.00000000
1, 3.2799, 328, 0.00569937, -0.89576721, -0.45181608, -7.61957121, -6.14017725, -3.62473321, 15.33078861, -60.34130478, 40.37668991, -2.18446445, 0.40075058, -5.92116690, 0.99848127, 0.01885574, -0.00447642, 0.05157265, 0.00130152, 0.93336010, -0.54745245, 87.59200287, 1211.56689453, 38.09000015, 0.00000000
1, 3.2899, 329, 0.00818013, -0.88936609, -0.45334306, -8.63192844, -6.51810789, -4.08661699, 15.33078861, -60.34130478, 40.37668991, -2.27232313, 0.40148631, -5.99694967, 0.99843216, 0.01961795, -0.00453534, 0.05222937, -0.00118037, 0.92843646, -0.54586869, 87.59200287, 1211.56689453, 38.09000015, 0.00000000
1, 3.2999, 330, 0.01336867, -0.88427663, -0.45423451, -9.01064587, -7.23073006, -4.76841593, 15.22109699, -59.90151215, 40.12927628, -2.36416745, 0.40416595, -6.08232594, 0.99837691, 0.02041352, -0.00461576, 0.05296910, -0.00633595, 0.92492330, -0.54491425, 87.59200287, 1211.56689453, 38.09000015, 0.00000000
1, 3.3099, 331, 0.01150337, -0.88259417, -0.45636582, -8.86883831, -8.12938690, -5.36782694, 15.62330818, -60.34130478, 40.01508331, -2.44719625, 0.40690228, -6.21920633, 0.99829775, 0.02113003, -0.00470322, 0.05415773, -0.00442050, 0.92480135, -0.54271781, 87.59200287, 1211.56689453, 38.09000015, 0.00000000
1, 3.3199, 332, 0.01081449, -0.88183981, -0.46046016, -9.03009224, -8.76827145, -6.25968075, 15.69643497, -60.16538239, 40.68120193, -2.53967476, 0.41388044, -6.32551098, 0.99822956, 0.02192790, -0.00482806, 0.05507863, -0.00364020, 0.92553604, -0.53855884, 87.59200287, 1211.56689453, 38.09000015, 0.00000000
1, 3.3299, 333, 0.01324174, -0.88015115, -0.46879056, -9.40340424, -9.50918102, -7.31123495, 15.87925720, -61.00099564, 39.91992188, -2.63613915, 0.42568743, -6.44363165, 0.99815321, 0.02275738, -0.00500074, 0.05610108, -0.00589730, 0.92550474, -0.53015327, 87.59200287, 1211.56689453, 38.09000015, 0.00000000
1, 3.3399, 334, 0.01663130, -0.88070238, -0.47331122, -9.79188633, -10.47235966, -8.42015076, 15.40392017, -60.12141037, 39.78669739, -2.73680854, 0.44158348, -6.57576466, 0.99806714, 0.02362045, -0.00521572, 0.05724421, -0.00903517, 0.92779011, -0.52555048, 87.59200287, 1211.56689453, 38.09000015, 0.00000000
1, 3.3499, 335, 0.02037887, -0.87850147, -0.47408527, -9.49997330, -11.53539848, -9.39262295, 15.40392017, -60.12141037, 39.78669739, -2.83489799, 0.45983592, -6.72213316, 0.99797219, 0.02445868, -0.00545493, 0.05851051, -0.01247756, 0.92732644, -0.52469075, 87.59200287, 1211.56689453, 38.09000015, 0.00000000
1, 3.3599, 336, 0.02743125, -0.86817753, -0.47458035, -8.59727097, -12.12422943, -10.74371529, 15.18453217, -60.12141037, 39.63444138, -2.92106318, 0.48805225, -6.91810322, 0.99785149, 0.02518476, -0.00578773, 0.06020665, -0.01912528, 0.91860527, -0.52411276, 87.59200287, 1211.56689453, 38.09000015, 0.00000000
1, 3.3699, 337, 0.03176292, -0.85464215, -0.47043610, -8.39170551, -12.42121601, -12.43810558, 15.65986919, -60.56120300, 39.74863434, -3.00872040, 0.52684891, -7.08844566, 0.99774033, 0.02591841, -0.00621015, 0.06167646, -0.02284114, 0.90655422, -0.52817559, 87.59200287, 1211.56689453, 38.09000015, 0.00000000
1, 3.3799, 338, 0.03331316, -0.84090000, -0.47441286, -7.09925413, -12.16302490, -13.98352432, 15.29422855, -60.34130478, 39.67250824, -3.08372712, 0.57981950, -7.26511097, 0.99762541, 0.02653247, -0.00675262, 0.06319794, -0.02356071, 0.89423317, -0.52411622, 87.59200287, 1211.56689453, 38.09000015, 0.00000000
1, 3.3899, 339, 0.04025827, -0.81287867, -0.48782808, -5.23465872, -11.79827404, -15.47571754, 15.55017757, -60.29732513, 39.59637833, -3.14038467, 0.64712596, -7.44701481, 0.99750853, 0.02697670, -0.00741265, 0.06476187, -0.02942427, 0.86729932, -0.51063120, 87.59200287, 1211.56689453, 38.09000015, 0.00000000
1, 3.3999, 340, 0.05286134, -0.78819174, -0.50895900, -5.55083513, -11.39425755, -16.20454216, 15.55017757, -60.29732513, 39.59637833, -3.20043659, 0.72256583, -7.62945223, 0.99738717, 0.02744367, -0.00814696, 0.06632736, -0.04074652, 0.84361225, -0.48943049, 87.59200287, 1211.56689453, 38.09000015, 0.00000000
1, 3.4099, 341, 0.05898520, -0.78061521, -0.52982193, -4.85018969, -12.09805202, -15.85234070, 16.31803322, -60.20936584, 39.21573639, -3.26145816, 0.79629391, -7.85313749, 0.99723810, 0.02791460, -0.00887848, 0.06825123, -0.04558812, 0.83708823, -0.46849224, 87.59200287, 1211.56689453, 38.09000015, 0.00000000
1, 3.4199, 342, 0.06124476, -0.77830619, -0.52322698, -0.23362234, -13.35627747, -14.34602833, 16.17177200, -58.71406937, 39.15864182, -3.26900411, 0.84514260, -8.04292583, 0.99711967, 0.02793555, -0.00935435, 0.06988984, -0.04678263, 0.83536935, -0.47503883, 87.59200287, 1211.56689453, 38.09000015, 0.00000000
1, 3.4299, 343, 0.06060938, -0.75323713, -0.52046967, 5.15231752, -13.23087120, -11.01999378, 16.28146744, -57.92244339, 39.12057877, -3.22230506, 0.86668444, -8.21444321, 0.99702418, 0.02750171, -0.00955448, 0.07138067, -0.04555712, 0.80976880, -0.47781765, 87.59200287, 1211.56689453, 38.09000015, 0.00000000
1, 3.4399, 344, 0.05431262, -0.73443514, -0.53181869, 6.33992338, -13.35662651, -4.80354881, 15.95238781, -57.74652863, 39.25379944, -3.16285682, 0.83528852, -8.35372257, 0.99695230, 0.02699288, -0.00927710, 0.07260510, -0.03942606, 0.79001403, -0.46652451, 87.59200287, 1211.56689453, 38.09000015, 0.00000000
1, 3.4499, 345, 0.04154148, -0.72740120, -0.53153855, 7.06277561, -14.71897316, 3.37466693, 15.95238781, -57.74652863, 39.25379944, -3.09519601, 0.72773874, -8.46072006, 0.99690431, 0.02646497, -0.00832326, 0.07356718, -0.02799906, 0.78185850, -0.46688551, 87.59200287, 1211.56689453, 38.09000015, 0.00000000
1, 3.4599, 346, 0.02599050, -0.73275286, -0.52350086, 11.73228645, -16.77651787, 11.87775803, 16.72023964, -58.36223602, 39.38702393, -2.98701835, 0.53876692, -8.57366467, 0.99686170, 0.02563916, -0.00663509, 0.07460111, -0.01524812, 0.78560895, -0.47504288, 87.59200287, 1211.56689453, 38.09000015, 0.00000000
1, 3.4699, 347, -0.00459433, -0.76119405, -0.51714665, 15.00524616, -17.75399208, 20.82971001, 15.80613136, -58.88999176, 38.77800369, -2.83798075, 0.26775452, -8.61462116, 0.99687141, 0.02451807, -0.00418916, 0.07502499, 0.01115829, 0.81174946, -0.48155183, 87.59200287, 1211.56689453, 38.09000015, 0.00000000
1, 3.4799, 348, -0.02406284, -0.79061306, -0.50603205, 18.14893723, -19.61737823, 29.32397270, 15.51361179, -58.49417496, 38.77800369, -2.65690422, -0.08502626, -8.62744904, 0.99689758, 0.02317389, -0.00100413, 0.07521448, 0.02497620, 0.83817595, -0.49283385, 87.59200287, 1211.56689453, 38.09000015, 0.00000000
1, 3.4899, 349, -0.05391971, -0.84255308, -0.50531518, 19.98405075, -19.35802650, 36.44302368, 15.14796638, -58.75804901, 39.04444885, -2.45709682, -0.49684525, -8.60186863, 0.99693835, 0.02170507, 0.00271465, 0.07506972, 0.04801654, 0.88673377, -0.49368837, 87.59200287, 1211.56689453, 38.09000015, 0.00000000
1, 3.4999, 350, -0.08507018, -0.92314708, -0.49223360, 18.97416687, -16.82898521, 42.96810150, 15.14796638, -58.75804901, 39.04444885, -2.26757312, -0.95096618, -8.52175140, 0.99699432, 0.02034809, 0.00680401, 0.07444441, 0.07147422, 0.96394926, -0.50683826, 87.59200287, 1211.56689453, 38.09000015, 0.00000000
1, 3.5099, 351, -0.13942394, -1.01363420, -0.45083094, 23.74796295, -9.77382088, 47.23271942, 14.96514320, -60.07742691, 38.85412979, -2.02827024, -1.40953851, -8.38731670, 0.99707508, 0.01854969, 0.01097118, 0.07332793, 0.11781903, 1.05070853, -0.54824471, 87.59200287, 1211.56689453, 38.09000015, 0.00000000
1, 3.5199, 352, -0.18329397, -1.07112086, -0.42603058, 27.73800087, 1.05097377, 46.16487503, 15.18453217, -61.26486588, 39.34896088, -1.75469923, -1.79896462, -8.14251232, 0.99721962, 0.01638591, 0.01456985, 0.07121971, 0.15432015, 1.10351586, -0.57302189, 87.59200287, 1211.56689453, 38.09000015, 0.00000000
1, 3.5299, 353, -0.17941271, -1.08783281, -0.42201582, 21.24427414, 11.90232563, 39.46945190, 14.78232574, -61.26486588, 38.66381073, -1.54862547, -2.07614779, -7.83991337, 0.99738896, 0.01471846, 0.01714908, 0.06858956, 0.14484638, 1.11603093, -0.57698750, 87.59200287, 1211.56689453, 38.09000015, 0.00000000
1, 3.5399, 354, -0.15390244, -1.10471344, -0.40632012, 10.85647774, 16.89183044, 31.53768921, 14.41668034, -62.14445114, 39.34896088, -1.44764841, -2.26039767, -7.53445339, 0.99754918, 0.01389888, 0.01885036, 0.06593374, 0.11556089, 1.13049662, -0.59261137, 87.59200287, 1211.56689453, 38.09000015, 0.00000000
1, 3.5499, 355, -0.11318290, -1.08824050, -0.37037355, 2.57615733, 18.08114433, 24.04693794, 14.41668034, -62.14445114, 39.34896088, -1.42950189, -2.37448478, -7.25618362, 0.99768758, 0.01375780, 0.01988745, 0.06351926, 0.07242110, 1.11319947, -0.62848341, 87.59200287, 1211.56689453, 38.09000015, 0.00000000
1, 3.5599, 356, -0.05573729, -1.06083024, -0.34179649, -0.65084976, 18.31418419, 18.70032692, 14.34354877, -63.90362167, 39.53927994, -1.42606616, -2.44010329, -7.03900766, 0.99779415, 0.01372516, 0.02048673, 0.06163409, 0.01352819, 1.08582509, -0.65699959, 87.59200287, 1211.56689453, 38.09000015, 0.00000000
1, 3.5699, 357, 0.00323985, -1.01899111, -0.31626832, 0.68279886, 17.49412346, 14.88208961, 14.08759975, -64.34340668, 39.61540985, -1.42596507, -2.47847748, -6.81245756, 0.99790668, 0.01370355, 0.02084806, 0.05966502, -0.04625956, 1.04387951, -0.68249583, 87.59200287, 1211.56689453, 38.09000015, 0.00000000
1, 3.5799, 358, 0.06155023, -0.99094319, -0.28866181, 1.51820350, 15.25299454, 11.68589878, 13.28317833, -63.19995117, 39.63444138, -1.41655147, -2.50087547, -6.62165499, 0.99800134, 0.01359807, 0.02107069, 0.05800381, -0.10506721, 1.01570833, -0.71008384, 87.59200287, 1211.56689453, 38.09000015, 0.00000000
1, 3.5899, 359, 0.10313910, -0.97550035, -0.28388157, 1.65176773, 11.93220234, 8.06485558, 13.61225796, -63.24393463, 39.90089035, -1.40440989, -2.50916767, -6.47796011, 0.99807310, 0.01346995, 0.02116597, 0.05675086, -0.14687990, 1.00005746, -0.71485949, 87.59200287, 1211.56689453, 38.09000015, 0.00000000
1, 3.5999, 360, 0.13998713, -0.97038394, -0.29202682, 1.39643621, 8.42422104, 4.15981531, 13.61225796, -63.24393463, 39.90089035, -1.39329135, -2.50185657, -6.38440418, 0.99812192, 0.01335229, 0.02111870, 0.05593324, -0.18370911, 0.99475789, -0.70671952, 87.59200287, 1211.56689453, 38.09000015, 0.00000000
1, 3.6099, 361, 0.16174275, -0.96370828, -0.29700273, 2.46248579, 5.50955820, 0.28078341, 13.86821175, -65.00309753, 40.20540237, -1.27133596, -2.38650632, -6.38657045, 0.99815655, 0.01223460, 0.02017320, 0.05591965, -0.20475282, 0.98732841, -0.70179194, 87.59200287, 1211.56689453, 38.09000015, 0.00000000
1, 3.6199, 362, 0.18130392, -0.94417745, -0.31523320, 1.43101490, 4.11831284, -3.31370616, 14.38011456, -65.66278839, 39.23477173, -1.25753450, -2.33702016, -6.36817265, 0.99817610, 0.01208726, 0.01975081, 0.05575272, -0.22243828, 0.96616018, -0.68367851, 87.59200287, 1211.56689453, 38.09000015, 0.00000000
1, 3.6299, 363, 0.17585237, -0.92392045, -0.34496215, -1.29263675, 2.49798107, -6.29259348, 14.23385715, -63.55178452, 39.95798874, -1.27016139, -2.27013755, -6.37854242, 0.99818176, 0.01216670, 0.01916095, 0.05583942, -0.21591032, 0.94596338, -0.65399206, 87.59200287, 1211.56689453, 38.09000015, 0.00000000
1, 3.6399, 364, 0.14965552, -0.91108531, -0.33429497, -1.49763787, 0.10583893, -8.08251095, 14.19729233, -64.07953644, 39.46315384, -1.28408802, -2.20003843, -6.41862583, 0.99817300, 0.01226060, 0.01853925, 0.05618473, -0.18850191, 0.93339151, -0.66470122, 87.59200287, 1211.56689453, 38.09000015, 0.00000000
1, 3.6499, 365, 0.12179682, -0.90331566, -0.31897473, -1.10792875, -2.60756302, -9.88100147, 14.70919418, -65.48686981, 39.65347290, -1.29337156, -2.12829900, -6.49131060, 0.99814838, 0.01231792, 0.01790197, 0.05681297, -0.15940040, 0.92581362, -0.68006456, 87.59200287, 1211.56689453, 38.09000015, 0.00000000
1, 3.6599, 366, 0.08850522, -0.90389735, -0.29709697, -2.67510247, -6.13287783, -12.28823662, 14.70919418, -65.48686981, 39.65347290, -1.28802097, -2.03744292, -6.64483356, 0.99808681, 0.01224951, 0.01709680, 0.05814128, -0.12477048, 0.92653304, -0.70198876, 87.59200287, 1211.56689453, 38.09000015, 0.00000000
1, 3.6699, 367, 0.05725569, -0.92181110, -0.29396683, -6.65722799, -11.01892853, -15.54287052, 14.74575996, -65.04708099, 39.86282730, -1.35083580, -1.95992064, -6.81807518, 0.99800318, 0.01278233, 0.01637039, 0.05965224, -0.09197164, 0.94490498, -0.70516348, 87.59200287, 1211.56689453, 38.09000015, 0.00000000
1, 3.6799, 368, 0.02314317, -0.95939255, -0.30710080, -12.97625542, -16.12082863, -18.24996376, 15.07484055, -63.06801224, 39.95798874, -1.47593439, -1.88547885, -7.04832029, 0.99787807, 0.01386478, 0.01562909, 0.06166749, -0.05651342, 0.98422980, -0.69203329, 87.59200287, 1211.56689453, 38.09000015, 0.00000000
1, 3.6899, 369, -0.01211317, -1.00167727, -0.29711241, -15.20335007, -22.00504684, -19.42155647, 15.14796638, -62.54026413, 39.19670486, -1.62248206, -1.83175659, -7.33495474, 0.99771011, 0.01514990, 0.01504454, 0.06417709, -0.02017162, 1.02903056, -0.70199168, 87.59200287, 1211.56689453, 38.09000015, 0.00000000
1, 3.6999, 370, -0.03694444, -1.01832962, -0.26498076, -14.72035408, -23.89238930, -18.14434052, 14.70919418, -61.96853638, 39.42508698, -1.76423967, -1.79940927, -7.63139200, 0.99752593, 0.01640407, 0.01464111, 0.06677233, 0.00535672, 1.04816973, -0.73407435, 87.59200287, 1211.56689453, 38.09000015, 0.00000000
1, 3.7099, 371, -0.07010915, -1.00062168, -0.21915570, -15.05037117, -21.41803169, -15.33151722, 14.70919418, -61.96853638, 39.42508698, -1.88781929, -1.78527141, -7.92270708, 0.99733669, 0.01750832, 0.01440155, 0.06932184, 0.03888525, 1.03279471, -0.77983862, 87.59200287, 1211.56689453, 38.09000015, 0.00000000
1, 3.7199, 372, -0.01778763, -0.93671793, -0.22704892, -24.34822273, -14.73038673, -16.34021378, 14.74575996, -62.54026413, 38.93025589, -2.12770081, -1.72221875, -8.13034630, 0.99717981, 0.01958303, 0.01367217, 0.07114923, -0.01261837, 0.97224289, -0.77185643, 87.59200287, 1211.56689453, 38.09000015, 0.00000000
1, 3.7299, 373, 0.01681226, -0.85777384, -0.21690527, -25.12665939, -12.37114525, -10.87411118, 14.67262936, -63.19995117, 38.73993683, -2.37635326, -1.69426060, -8.28940582, 0.99703914, 0.02174795, 0.01324428, 0.07255796, -0.04652636, 0.89757609, -0.78185964, 87.59200287, 1211.56689453, 38.09000015, 0.00000000
1, 3.7399, 374, 0.01323712, -0.84469950, -0.21014306, -27.40722847, -11.13465309, -8.85478878, 14.85545158, -62.18843079, 38.45445633, -2.64821172, -1.67764139, -8.42712402, 0.99689919, 0.02411837, 0.01289853, 0.07378412, -0.04262769, 0.88905567, -0.78843939, 87.59200287, 1211.56689453, 38.09000015, 0.00000000
1, 3.7499, 375, 0.00659912, -0.85976797, -0.22773854, -29.23318481, -9.32866287, -8.93428135, 14.74575996, -59.85753250, 38.24510574, -2.93861985, -1.65142488, -8.54979515, 0.99675894, 0.02664135, 0.01245492, 0.07487806, -0.03560513, 0.90912551, -0.77062035, 87.59200287, 1211.56689453, 38.09000015, 0.00000000
1, 3.7599, 376, -0.00824228, -0.87396944, -0.25397101, -26.94714928, -8.00389099, -9.10678673, 14.74575996, -59.85753250, 38.24510574, -3.18655086, -1.61584866, -8.69716835, 0.99660689, 0.02879025, 0.01194641, 0.07617831, -0.02019975, 0.92808706, -0.74415767, 87.59200287, 1211.56689453, 38.09000015, 0.00000000
1, 3.7699, 377, -0.01346100, -0.87358499, -0.27787080, -24.05752563, -7.51371765, -8.31429863, 14.38011456, -60.38528061, 37.61705017, -3.42558908, -1.58619475, -8.80212402, 0.99647862, 0.03086015, 0.01150131, 0.07710835, -0.01440568, 0.93178749, -0.72004437, 87.59200287, 1211.56689453, 38.09000015, 0.00000000
1, 3.7799, 378, -0.01280313, -0.86549401, -0.29380521, -22.42319489, -7.05083036, -7.50096560, 14.96514320, -59.85753250, 37.84543228, -3.64842701, -1.56129503, -8.89911556, 0.99635464, 0.03279072, 0.01110707, 0.07796726, -0.01460209, 0.92765963, -0.70388371, 87.59200287, 1211.56689453, 38.09000015, 0.00000000
1, 3.7899, 379, -0.00256125, -0.84919155, -0.30923760, -22.90207672, -6.20258093, -7.13010025, 15.00170898, -61.13293076, 38.24510574, -3.87622929, -1.53524363, -8.98700047, 0.99623102, 0.03476205, 0.01069888, 0.07874583, -0.02440848, 0.91524673, -0.68821317, 87.59200287, 1211.56689453, 38.09000015, 0.00000000
1, 3.7999, 380, 0.01142456, -0.83511561, -0.31316844, -25.27034187, -6.24002409, -7.01817179, 15.29422855, -59.46171951, 37.63607788, -4.12776756, -1.51067996, -9.07436752, 0.99609542, 0.03693995, 0.01028429, 0.07952111, -0.03794275, 0.90541315, -0.68400437, 87.59200287, 1211.56689453, 38.09000015, 0.00000000
1, 3.8099, 381, 0.02254403, -0.81948656, -0.31773484, -25.92916679, -6.37843895, -7.26516199, 15.29422855, -59.46171951, 37.63607788, -4.37216043, -1.48055387, -9.20028019, 0.99593067, 0.03905442, 0.00980989, 0.08062753, -0.04861923, 0.89418381, -0.67912972, 87.59200287, 1211.56689453, 38.09000015, 0.00000000
1, 3.8199, 382, 0.02828136, -0.81567913, -0.32982916, -26.67171478, -6.14646149, -8.17208481, 15.51361179, -58.84601212, 37.04608917, -4.63772154, -1.44664085, -9.29333878, 0.99577641, 0.04134634, 0.00929470, 0.08144710, -0.05376058, 0.89476335, -0.66671222, 87.59200287, 1211.56689453, 38.09000015, 0.00000000
1, 3.8299, 383, 0.03011546, -0.83460367, -0.35028276, -27.71282959, -6.55095482, -9.12663174, 15.00170898, -57.96642685, 37.19834518, -4.91365194, -1.40751970, -9.39511776, 0.99560660, 0.04372431, 0.00871977, 0.08233932, -0.05493593, 0.91841787, -0.64588857, 87.59200287, 1211.56689453, 38.09000015, 0.00000000
1, 3.8399, 384, 0.04428468, -0.87284368, -0.36975548, -27.49703979, -7.72377920, -9.71445465, 15.73299980, -58.09836197, 36.60835266, -5.18734407, -1.37067902, -9.51011372, 0.99542123, 0.04608418, 0.00815676, 0.08334470, -0.06843561, 0.96146655, -0.62601602, 87.59200287, 1211.56689453, 38.09000015, 0.00000000
1, 3.8499, 385, 0.06557345, -0.92443603, -0.38647702, -23.35538483, -9.43928432, -9.86866379, 15.65986919, -57.52663422, 36.58932114, -5.41950989, -1.34288394, -9.64080715, 0.99523389, 0.04808969, 0.00769160, 0.08448499, -0.08917911, 1.01742482, -0.60890967, 87.59200287, 1211.56689453, 38.09000015, 0.00000000
