SensorId, TimeStamp (s), FrameNumber, AccX (g), AccY (g), AccZ (g), GyroX (deg/s), GyroY (deg/s), GyroZ (deg/s), MagX (uT), MagY (uT), MagZ (uT), EulerX (deg), EulerY (deg), EulerZ (deg), QuatW, QuatX, QuatY, QuatZ, LinAccX (g), LinAccY (g), LinAccZ (g), Pressure (kPa), Altitude (m), Temperature (degC), HeaveMotion (m)
1, 0.0000, 0, -0.06594387, -0.75545394, -0.66851020, 1.22617102, 1.42367578, 1.58680344, 9.59016514, -67.46593475, 37.71220779, 47.18363953, -4.56499004, 121.13251495, 0.43610513, -0.22830476, -0.33034751, -0.80533212, -0.01388060, 0.02453162, -0.00926605, 87.62500763, 1208.47619629, 40.31999969, 0.00000000
1, 0.0100, 1, -0.06357050, -0.75480855, -0.66857201, 0.55196530, 1.16676927, 1.23189914, 9.15139103, -66.01461792, 37.40769577, 47.18780518, -4.56609821, 121.14951324, 0.43597391, -0.22827928, -0.33040613, -0.80538630, -0.01603499, 0.02356440, -0.00888281, 87.62500763, 1208.47619629, 40.31999969, 0.00000000
1, 0.0200, 2, -0.06241243, -0.75425977, -0.66747850, -0.32116893, 0.95834064, 0.96651429, 8.82231140, -66.49839020, 37.55995178, 47.18350601, -4.56667089, 121.16314697, 0.43588477, -0.22822754, -0.33040076, -0.80545139, -0.01720497, 0.02303013, -0.00999060, 87.62500763, 1208.47619629, 40.31999969, 0.00000000
1, 0.0300, 3, -0.06257144, -0.75458401, -0.66637486, -0.78273958, 0.57875460, 0.87205470, 9.00513363, -67.72981262, 38.30220032, 47.17486954, -4.56913233, 121.17334747, 0.43582243, -0.22818224, -0.33035040, -0.80551863, -0.01706996, 0.02344470, -0.01118881, 87.62500763, 1208.47619629, 40.31999969, 0.00000000
1, 0.0400, 4, -0.06334352, -0.75008976, -0.66398191, -0.68748266, 0.39536232, 0.58665460, 9.18795681, -67.86174774, 37.76930618, 47.16744232, -4.57074642, 121.18024445, 0.43578357, -0.22814524, -0.33030543, -0.80556870, -0.01633551, 0.01904617, -0.01368053, 87.62500763, 1208.47619629, 40.31999969, 0.00000000
1, 0.0500, 5, -0.06571101, -0.74943244, -0.66338772, -0.53801626, 0.24755731, 0.24910206, 9.18795681, -67.86174774, 37.76930618, 47.27933884, -4.51533556, 121.23472595, 0.43535513, -0.22803131, -0.33142436, -0.80537295, -0.01374453, 0.01810455, -0.01399362, 87.62500763, 1208.47619629, 40.31999969, 0.00000000
1, 0.0600, 6, -0.07167565, -0.74906725, -0.66505021, -0.55095780, 0.18396340, -0.06860483, 9.44390774, -66.58635712, 37.73123932, 47.27375412, -4.51358366, 121.23561096, 0.43536562, -0.22799546, -0.33139399, -0.80538994, -0.00703120, 0.01671542, -0.01131211, 87.62500763, 1208.47619629, 40.31999969, 0.00000000
1, 0.0700, 7, -0.07560998, -0.74895042, -0.66844612, -0.83627260, 0.35696536, -0.29261270, 8.85887623, -67.86174774, 37.90252686, 47.26534653, -4.50900698, 121.23624420, 0.43539253, -0.22793013, -0.33135462, -0.80541009, -0.00303829, 0.01667480, -0.00800563, 87.62500763, 1208.47619629, 40.31999969, 0.00000000
1, 0.0800, 8, -0.08020100, -0.74712503, -0.67057544, -1.24580491, 0.30513674, -0.46823227, 9.00513363, -67.29001617, 37.44575882, 47.25296402, -4.50349617, 121.23531342, 0.43544140, -0.22784780, -0.33128798, -0.80543441, 0.00164455, 0.01497750, -0.00602561, 87.62500763, 1208.47619629, 40.31999969, 0.00000000
1, 0.0900, 9, -0.08092347, -0.74772567, -0.67184913, -1.36832464, 0.08231209, -0.54285514, 9.33421421, -67.15808105, 37.75027084, 47.23952103, -4.49894619, 121.23222351, 0.43550438, -0.22777429, -0.33120576, -0.80545497, 0.00245033, 0.01573363, -0.00492977, 87.62500763, 1208.47619629, 40.31999969, 0.00000000
1, 0.1000, 10, -0.08247006, -0.74705696, -0.67318428, -1.08320320, 0.06511790, -0.40346268, 9.33421421, -67.15808105, 37.75027084, 47.27251434, -4.51162624, 121.29166412, 0.43498036, -0.22781514, -0.33150467, -0.80560362, 0.00399730, 0.01507524, -0.00360565, 87.62500763, 1208.47619629, 40.31999969, 0.00000000
1, 0.1100, 11, -0.08307699, -0.74748302, -0.67380935, -0.76374382, 0.08107787, -0.17558666, 10.17519665, -68.21358490, 37.90252686, 47.26492310, -4.50978518, 121.29106140, 0.43500552, -0.22777535, -0.33145750, -0.80562055, 0.00443516, 0.01523001, -0.00266767, 87.62500763, 1208.47619629, 40.31999969, 0.00000000
1, 0.1200, 12, -0.08081739, -0.74731785, -0.67052203, -0.40497246, 0.01470739, -0.14292319, 10.02893925, -67.15808105, 37.67414474, 47.26094437, -4.50863695, 121.29019928, 0.43502316, -0.22775482, -0.33143243, -0.80562717, 0.00220310, 0.01512374, -0.00602190, 87.62500763, 1208.47619629, 40.31999969, 0.00000000
1, 0.1300, 13, -0.07975694, -0.74768960, -0.66715932, -0.14045528, 0.23693819, 0.03672269, 9.91924763, -67.55389404, 37.69317627, 47.25938416, -4.50729609, 121.29219055, 0.43501651, -0.22773388, -0.33143085, -0.80563730, 0.00115651, 0.01551887, -0.00941144, 87.62500763, 1208.47619629, 40.31999969, 0.00000000
1, 0.1400, 14, -0.07918541, -0.74620044, -0.66434246, -0.26648241, 0.42606670, -0.04680704, 9.66329384, -67.42195129, 38.14994431, 47.25649643, -4.50406456, 121.29502106, 0.43501282, -0.22769248, -0.33142924, -0.80565184, 0.00062624, 0.01405472, -0.01226017, 87.62500763, 1208.47619629, 40.31999969, 0.00000000
1, 0.1500, 15, -0.08017184, -0.74551260, -0.66244066, -0.80542105, 0.61138624, -0.09399678, 9.66329384, -67.42195129, 38.14994431, 47.30463409, -4.50867796, 121.35850525, 0.43445605, -0.22772318, -0.33187515, -0.80575985, 0.00165519, 0.01326868, -0.01406050, 87.62500763, 1208.47619629, 40.31999969, 0.00000000
1, 0.1600, 16, -0.07770056, -0.74328208, -0.66239768, -1.36294866, 0.76111335, -0.07156470, 9.66329384, -66.93818665, 37.88349915, 47.29060364, -4.50299120, 121.36360931, 0.43446618, -0.22761597, -0.33180961, -0.80581176, -0.00084828, 0.01068486, -0.01371728, 87.62500763, 1208.47619629, 40.31999969, 0.00000000
1, 0.1700, 17, -0.08159582, -0.74157530, -0.66605872, -1.59455025, 0.67438030, -0.12541439, 9.22451973, -66.58635712, 37.63607788, 47.27433395, -4.49749804, 121.36772156, 0.43448716, -0.22750449, -0.33172554, -0.80586654, 0.00314145, 0.00915831, -0.01026256, 87.62500763, 1208.47619629, 40.31999969, 0.00000000
1, 0.1800, 18, -0.08159647, -0.74113709, -0.66679394, -1.63031089, 0.74356961, -0.17658533, 9.40734291, -66.36645508, 37.46479034, 47.25769806, -4.49115562, 121.37200165, 0.43451041, -0.22738525, -0.33164257, -0.80592179, 0.00325581, 0.00891148, -0.00974748, 87.62500763, 1208.47619629, 40.31999969, 0.00000000
1, 0.1900, 19, -0.08248434, -0.73965245, -0.66703916, -1.48918092, 0.81130034, -0.05254501, 9.88268185, -67.50991058, 37.86446381, 47.24236679, -4.48525763, 121.37760925, 0.43452024, -0.22727022, -0.33156967, -0.80597901, 0.00424229, 0.00760563, -0.00970715, 87.62500763, 1208.47619629, 40.31999969, 0.00000000
1, 0.2000, 20, -0.08165066, -0.73948658, -0.66712117, -1.34724200, 1.14004779, -0.15153772, 9.11482811, -67.50991058, 37.50285721, 47.25085449, -4.48461294, 121.44564056, 0.43402693, -0.22710104, -0.33176684, -0.80621123, 0.00350780, 0.00754179, -0.00974701, 87.62500763, 1208.47619629, 40.31999969, 0.00000000
1, 0.2100, 21, -0.08035082, -0.74050754, -0.66886812, -0.95538270, 1.24405372, -0.02750193, 9.11482811, -66.41043091, 37.50285721, 47.24060059, -4.47596502, 121.45461273, 0.43401179, -0.22697653, -0.33174729, -0.80626249, 0.00225612, 0.00850299, -0.00794102, 87.62500763, 1208.47619629, 40.31999969, 0.00000000
1, 0.2200, 22, -0.07799096, -0.74149317, -0.66795713, -0.29548720, 1.45308650, 0.09792173, 8.63948822, -66.45441437, 37.36963272, 47.23675919, -4.46682024, 121.46598053, 0.43396866, -0.22686595, -0.33177960, -0.80630356, 0.00004678, 0.00954744, -0.00893299, 87.62500763, 1208.47619629, 40.31999969, 0.00000000
1, 0.2300, 23, -0.07818562, -0.74139220, -0.67072773, 0.13103905, 1.60797226, 0.27565590, 8.71261692, -66.45441437, 37.29350281, 47.23700714, -4.45793152, 121.47969818, 0.43390009, -0.22676578, -0.33184424, -0.80634201, 0.00039559, 0.00945060, -0.00618458, 87.62500763, 1208.47619629, 40.31999969, 0.00000000
1, 0.2400, 24, -0.07659972, -0.74550694, -0.67126292, -0.01418106, 1.63943315, 0.38223156, 9.11482811, -68.08164215, 38.03575134, 47.23572922, -4.44960928, 121.49438477, 0.43382597, -0.22666098, -0.33189777, -0.80638933, -0.00103045, 0.01356274, -0.00566494, 87.62500763, 1208.47619629, 40.31999969, 0.00000000
1, 0.2500, 25, -0.07869627, -0.74781960, -0.67154855, -0.14151840, 1.51494014, 0.59094352, 9.66329384, -68.25756073, 37.92155838, 47.25931549, -4.44883204, 121.56959534, 0.43325242, -0.22652690, -0.33221564, -0.80660444, 0.00116182, 0.01581302, -0.00532275, 87.62500763, 1208.47619629, 40.31999969, 0.00000000
1, 0.2600, 26, -0.08037788, -0.74975246, -0.67038077, -0.62542331, 1.26871049, 0.72787404, 9.66329384, -68.25756073, 37.92155838, 47.25195694, -4.44556427, 121.58388519, 0.43317679, -0.22643505, -0.33220521, -0.80667514, 0.00285172, 0.01758388, -0.00631618, 87.62500763, 1208.47619629, 40.31999969, 0.00000000
1, 0.2700, 27, -0.08085905, -0.75083202, -0.67002457, -0.78749734, 1.12792981, 0.86603659, 9.00513363, -66.14656067, 37.44575882, 47.24297714, -4.44426823, 121.59809113, 0.43309867, -0.22635098, -0.33217525, -0.80675298, 0.00336258, 0.01876235, -0.00678289, 87.62500763, 1208.47619629, 40.31999969, 0.00000000
1, 0.2800, 28, -0.08253583, -0.74589419, -0.66760755, -0.64521968, 0.98896760, 1.03846276, 8.89544010, -66.67430878, 37.69317627, 47.23540878, -4.44517899, 121.61244965, 0.43300962, -0.22628705, -0.33214667, -0.80683047, 0.00503909, 0.01392266, -0.00930607, 87.62500763, 1208.47619629, 40.31999969, 0.00000000
1, 0.2900, 29, -0.08450929, -0.74468637, -0.67069727, -0.62591940, 0.97338837, 0.95018482, 10.02893925, -66.98216248, 37.97865677, 47.22809601, -4.44554472, 121.62609100, 0.43292689, -0.22622243, -0.33212069, -0.80690384, 0.00700049, 0.01279390, -0.00630036, 87.62500763, 1208.47619629, 40.31999969, 0.00000000
1, 0.3000, 30, -0.08161524, -0.74209237, -0.67009324, -1.05046809, 0.68213987, 0.71684277, 8.93200493, -69.13714600, 37.90252686, 47.23411560, -4.45745277, 121.69683838, 0.43237856, -0.22612232, -0.33225489, -0.80717045, 0.00405228, 0.01026772, -0.00697149, 87.62500763, 1208.47619629, 40.31999969, 0.00000000
1, 0.3100, 31, -0.07985998, -0.74126637, -0.67059124, -1.47911203, 0.73280060, 0.56101459, 8.93200493, -69.13714600, 37.90252686, 47.21860504, -4.45659304, 121.70606232, 0.43234697, -0.22603114, -0.33216727, -0.80724895, 0.00214568, 0.00946404, -0.00648026, 87.62500763, 1208.47619629, 40.31999969, 0.00000000
1, 0.3200, 32, -0.07760321, -0.74022770, -0.66858995, -1.74413538, 0.70068306, 0.29747561, 9.55360222, -66.89420319, 37.92155838, 47.20060730, -4.45401430, 121.71323395, 0.43234015, -0.22592460, -0.33206496, -0.80732453, -0.00007605, 0.00862896, -0.00870551, 87.62500763, 1208.47619629, 40.31999969, 0.00000000
1, 0.3300, 33, -0.07432201, -0.73992592, -0.66922885, -1.75509918, 0.50072670, -0.07583909, 9.88268185, -67.86174774, 38.35929489, 47.18280411, -4.45005465, 121.71641541, 0.43236557, -0.22582090, -0.33196169, -0.80738240, -0.00328889, 0.00853255, -0.00829624, 87.62500763, 1208.47619629, 40.31999969, 0.00000000
1, 0.3400, 34, -0.07380930, -0.73812294, -0.67099488, -1.53626144, 0.31602681, -0.22101821, 9.29764843, -67.55389404, 37.95962524, 47.16738129, -4.44628668, 121.71723938, 0.43240222, -0.22573425, -0.33186972, -0.80742484, -0.00374167, 0.00692765, -0.00675091, 87.62500763, 1208.47619629, 40.31999969, 0.00000000
1, 0.3500, 35, -0.07281213, -0.73715359, -0.67359239, -0.78230041, 0.14954826, -0.17409037, 8.93200493, -67.68582916, 37.59801865, 47.19605637, -4.40781355, 121.77413177, 0.43206793, -0.22541149, -0.33233801, -0.80750138, -0.00452420, 0.00596556, -0.00418569, 87.62500763, 1208.47619629, 40.31999969, 0.00000000
1, 0.3600, 36, -0.07267206, -0.73954737, -0.67834634, -0.28005514, -0.10638306, -0.02280303, 8.93200493, -67.68582916, 37.59801865, 47.19333267, -4.40836859, 121.77319336, 0.43207815, -0.22540776, -0.33231470, -0.80750650, -0.00418343, 0.00806235, 0.00083405, 87.62500763, 1208.47619629, 40.31999969, 0.00000000
1, 0.3700, 37, -0.07619003, -0.73945594, -0.67970711, -0.10290568, -0.05552375, 0.10077237, 9.00513363, -66.32247925, 38.34026337, 47.19227219, -4.40948486, 121.77346039, 0.43207473, -0.22541070, -0.33230335, -0.80751222, -0.00068872, 0.00798176, 0.00218584, 87.62500763, 1208.47619629, 40.31999969, 0.00000000
1, 0.3800, 38, -0.07998049, -0.74230754, -0.67632294, -0.14660926, 0.45505288, 0.34015831, 9.51703644, -69.18112183, 38.13091278, 47.19037247, -4.40888596, 121.77912903, 0.43204039, -0.22538295, -0.33230349, -0.80753821, 0.00309979, 0.01085402, -0.00122049, 87.62500763, 1208.47619629, 40.31999969, 0.00000000
1, 0.3900, 39, -0.08105861, -0.74117953, -0.67537278, -0.48814920, 0.86748499, 0.13893460, 9.29764843, -67.72981262, 37.75027084, 47.18493271, -4.40400934, 121.78646851, 0.43201512, -0.22530748, -0.33229908, -0.80757475, 0.00423212, 0.00977202, -0.00222641, 87.62500763, 1208.47619629, 40.31999969, 0.00000000
1, 0.4000, 40, -0.08335275, -0.73920798, -0.67492223, -0.56539315, 1.31117499, 0.25396878, 9.04169655, -67.46593475, 37.84543228, 47.18799973, -4.41905260, 121.86060333, 0.43143833, -0.22520807, -0.33240628, -0.80786669, 0.00654051, 0.00784546, -0.00272724, 87.62500763, 1208.47619629, 40.31999969, 0.00000000
1, 0.4100, 41, -0.08644111, -0.73656487, -0.67330623, -0.49179703, 1.34862232, 0.09632612, 9.04169655, -67.46593475, 37.84543228, 47.18226242, -4.41059494, 121.87117767, 0.43140206, -0.22509725, -0.33242041, -0.80791098, 0.00948728, 0.00519396, -0.00431806, 87.62500763, 1208.47619629, 40.31999969, 0.00000000
1, 0.4200, 42, -0.08750814, -0.73739320, -0.67003161, -0.61563164, 1.05489409, 0.16084303, 9.00513363, -67.11410522, 37.52188873, 47.17542648, -4.40460443, 121.88004303, 0.43137226, -0.22500436, -0.33241355, -0.80795562, 0.01067119, 0.00609037, -0.00767940, 87.62500763, 1208.47619629, 40.31999969, 0.00000000
1, 0.4300, 43, -0.08777019, -0.73843348, -0.67004192, -0.58996230, 0.47470614, -0.02721636, 9.40734291, -69.13714600, 37.97865677, 47.16927338, -4.40117264, 121.88333130, 0.43137202, -0.22494787, -0.33239034, -0.80798095, 0.01101360, 0.00720672, -0.00776029, 87.62500763, 1208.47619629, 40.31999969, 0.00000000
1, 0.4400, 44, -0.08507234, -0.74010909, -0.66756302, -0.17541331, 0.02967737, 0.10278548, 9.84611702, -67.77378845, 37.86446381, 47.16744232, -4.40172958, 121.88424683, 0.43136740, -0.22494219, -0.33237705, -0.80799061, 0.00832814, 0.00892825, -0.01029007, 87.62500763, 1208.47619629, 40.31999969, 0.00000000
1, 0.4500, 45, -0.08305362, -0.73958969, -0.66572189, 0.16735542, -0.32929054, 0.18208133, 9.62673092, -68.34552002, 37.76930618, 47.25451660, -4.45809364, 121.94486237, 0.43058836, -0.22548379, -0.33288485, -0.80804610, 0.00603980, 0.00815596, -0.01182730, 87.62500763, 1208.47619629, 40.31999969, 0.00000000
1, 0.4600, 46, -0.08070915, -0.74020118, -0.66733140, -0.04887987, -0.34956434, 0.27020821, 9.95580864, -68.34552002, 37.69317627, 47.25408936, -4.46244955, 121.94412231, 0.43058041, -0.22551444, -0.33286297, -0.80805075, 0.00293816, 0.00804922, -0.00935549, 87.62500763, 1208.47619629, 40.31999969, 0.00000000
1, 0.4700, 47, -0.07999432, -0.74056625, -0.67064917, 0.07037977, 0.04278220, 0.47145331, 9.95580864, -70.23662567, 37.69317627, 47.25452042, -4.46562052, 121.94764709, 0.43054456, -0.22552778, -0.33286026, -0.80806720, 0.00214869, 0.00841971, -0.00603494, 87.62500763, 1208.47619629, 40.31999969, 0.00000000
1, 0.4800, 48, -0.08267231, -0.74224782, -0.67287511, 0.05015819, 0.21330956, 0.52783525, 9.00513363, -68.03766632, 37.63607788, 47.25462723, -4.46804237, 121.95281219, 0.43050018, -0.22552995, -0.33286151, -0.80808973, 0.00478606, 0.01010349, -0.00380681, 87.62500763, 1208.47619629, 40.31999969, 0.00000000
1, 0.4900, 49, -0.08217341, -0.74462354, -0.67254823, 0.11874286, 0.50489640, 0.56891227, 9.29764843, -68.47746277, 37.84543228, 47.25522232, -4.46879339, 121.96040344, 0.43044308, -0.22551535, -0.33287767, -0.80811763, 0.00426427, 0.01247106, -0.00412232, 87.62500763, 1208.47619629, 40.31999969, 0.00000000
1, 0.5000, 50, -0.08268309, -0.74551064, -0.67283708, 0.03234517, 0.33467108, 0.44254971, 9.18795681, -68.87326813, 38.03575134, 47.31657410, -4.49820280, 122.02605438, 0.42976478, -0.22575824, -0.33332217, -0.80822748, 0.00463272, 0.01318407, -0.00362849, 87.62500763, 1208.47619629, 40.31999969, 0.00000000
1, 0.5100, 51, -0.08094119, -0.74395168, -0.66948384, -0.27217892, 0.29797381, 0.44271004, 9.62673092, -69.22510529, 37.82640076, 47.31343842, -4.49943733, 122.03126526, 0.42973030, -0.22573993, -0.33330545, -0.80825794, 0.00249956, 0.01112628, -0.00639628, 87.62500763, 1208.47619629, 40.31999969, 0.00000000
1, 0.5200, 52, -0.08179408, -0.74371433, -0.66789150, -0.50218552, 0.14377584, 0.31712380, 9.62673092, -69.22510529, 37.82640076, 47.30816650, -4.50078917, 122.03448486, 0.42971370, -0.22572017, -0.33326921, -0.80828732, 0.00332750, 0.01094246, -0.00804371, 87.62500763, 1208.47619629, 40.31999969, 0.00000000
1, 0.5300, 53, -0.07950865, -0.74114168, -0.66846347, -0.96774894, 0.17556974, 0.24890356, 9.29764843, -67.55389404, 37.31253433, 47.29826355, -4.50142431, 122.03746033, 0.42971009, -0.22567874, -0.33320266, -0.80832821, 0.00103133, 0.00846602, -0.00757472, 87.62500763, 1208.47619629, 40.31999969, 0.00000000
1, 0.5400, 54, -0.07791033, -0.73994547, -0.66939127, -1.66156733, -0.03145202, -0.01700040, 9.07826233, -67.02614594, 37.61705017, 47.28166962, -4.50151157, 122.03710938, 0.42974496, -0.22561814, -0.33308458, -0.80837518, -0.00057745, 0.00743560, -0.00682540, 87.62500763, 1208.47619629, 40.31999969, 0.00000000
1, 0.5500, 55, -0.07853908, -0.73884338, -0.67028248, -1.85571051, -0.18536866, -0.14269044, 9.66329384, -69.26908875, 37.76930618, 47.27670288, -4.50190449, 122.09322357, 0.42935753, -0.22543909, -0.33315837, -0.80860049, 0.00005559, 0.00650929, -0.00612505, 87.62500763, 1208.47619629, 40.31999969, 0.00000000
1, 0.5600, 56, -0.07866687, -0.73850757, -0.67043537, -1.69205260, -0.40680197, -0.16542488, 9.59016514, -68.25756073, 37.76930618, 47.26010513, -4.50344944, 122.08909607, 0.42941433, -0.22539958, -0.33302698, -0.80863547, 0.00015759, 0.00625922, -0.00606200, 87.62500763, 1208.47619629, 40.31999969, 0.00000000
1, 0.5700, 57, -0.07783304, -0.73972714, -0.67160422, -1.74211848, -0.62820429, -0.29297459, 9.59016514, -68.25756073, 37.76930618, 47.24320602, -4.50556421, 122.08247375, 0.42948756, -0.22537014, -0.33288625, -0.80866277, -0.00071079, 0.00768186, -0.00510888, 87.62500763, 1208.47619629, 40.31999969, 0.00000000
1, 0.5800, 58, -0.07805458, -0.73993295, -0.67428493, -1.25827861, -0.59010023, -0.29365399, 9.51703644, -67.20205688, 37.88349915, 47.23112106, -4.50741720, 122.07613373, 0.42955020, -0.22535612, -0.33278114, -0.80867678, -0.00052404, 0.00805482, -0.00260492, 87.62500763, 1208.47619629, 40.31999969, 0.00000000
1, 0.5900, 59, -0.07668646, -0.74115574, -0.67277110, -1.02621341, -0.31210759, -0.39398944, 9.33421421, -68.08164215, 37.94059372, 47.22125244, -4.50664330, 122.07115173, 0.42960724, -0.22532824, -0.33270475, -0.80868560, -0.00189532, 0.00940132, -0.00425212, 87.62500763, 1208.47619629, 40.31999969, 0.00000000
1, 0.6000, 60, -0.07728010, -0.74083000, -0.67271370, -0.86552435, -0.20763822, -0.40986305, 9.48047066, -67.90572357, 37.25543976, 47.24388123, -4.50158882, 122.12506866, 0.42919844, -0.22522141, -0.33299062, -0.80881476, -0.00125967, 0.00908448, -0.00432400, 87.62500763, 1208.47619629, 40.31999969, 0.00000000
1, 0.6100, 61, -0.07549774, -0.73940951, -0.67022258, -1.02427328, -0.30981514, -0.53457361, 9.22451973, -67.99369049, 37.67414474, 47.23409653, -4.49976444, 122.11914062, 0.42926532, -0.22518936, -0.33291721, -0.80881840, -0.00296636, 0.00749366, -0.00663978, 87.62500763, 1208.47619629, 40.31999969, 0.00000000
1, 0.6200, 62, -0.07743426, -0.73768288, -0.67133904, -1.07241523, -0.58095640, -0.76864475, 9.22451973, -67.99369049, 37.67414474, 47.22411728, -4.49807167, 122.10963440, 0.42935750, -0.22516787, -0.33283484, -0.80880940, -0.00100428, 0.00588468, -0.00565347, 87.62500763, 1208.47619629, 40.31999969, 0.00000000
1, 0.6300, 63, -0.07619538, -0.73788214, -0.67108077, -0.81488055, -1.26481128, -0.80138820, 9.29764843, -66.71829224, 38.09284973, 47.21713257, -4.50077868, 122.09486389, 0.42946678, -0.22520332, -0.33274570, -0.80877817, -0.00225213, 0.00617908, -0.00601353, 87.62500763, 1208.47619629, 40.31999969, 0.00000000
1, 0.6400, 64, -0.07686149, -0.73716927, -0.67049831, -0.90269560, -1.57541072, -0.73733634, 9.66329384, -68.87326813, 38.32123184, 47.20940781, -4.50606918, 122.07823944, 0.42958233, -0.22525929, -0.33263743, -0.80874580, -0.00166864, 0.00556242, -0.00669035, 87.62500763, 1208.47619629, 40.31999969, 0.00000000
1, 0.6500, 65, -0.07711393, -0.73514205, -0.67368650, -0.42211607, -1.36778474, -0.61139351, 9.91924763, -68.03766632, 37.84543228, 47.20632935, -4.51020384, 122.12380981, 0.42925349, -0.22514407, -0.33268872, -0.80893135, -0.00149585, 0.00359693, -0.00355965, 87.62500763, 1208.47619629, 40.31999969, 0.00000000
1, 0.6600, 66, -0.07979085, -0.73423815, -0.67355537, -0.24755284, -1.05992043, -0.46482879, 9.88268185, -68.65337372, 37.38866425, 47.20471191, -4.51399612, 122.11283875, 0.42932194, -0.22519614, -0.33264065, -0.80890030, 0.00110892, 0.00272511, -0.00371704, 87.62500763, 1208.47619629, 40.31999969, 0.00000000
1, 0.6700, 67, -0.08036058, -0.73446357, -0.67528623, 0.09187559, -0.72933888, -0.58196545, 9.88268185, -68.65337372, 37.38866425, 47.20636749, -4.51468325, 122.10350037, 0.42938238, -0.22523420, -0.33263123, -0.80886149, 0.00164763, 0.00294539, -0.00197692, 87.62500763, 1208.47619629, 40.31999969, 0.00000000
1, 0.6800, 68, -0.08127040, -0.73689544, -0.67660594, 0.55415744, -0.40092456, -0.50616229, 9.80955124, -67.42195129, 37.48382568, 47.21240616, -4.51369429, 122.09709167, 0.42941889, -0.22526859, -0.33266523, -0.80881858, 0.00257156, 0.00532486, -0.00060238, 87.62500763, 1208.47619629, 40.31999969, 0.00000000
1, 0.6900, 69, -0.08474310, -0.73973155, -0.67786413, 0.48334756, -0.31371757, -0.62716037, 8.63948822, -66.49839020, 37.16028214, 47.21775436, -4.51122189, 122.09050751, 0.42946279, -0.22529063, -0.33269989, -0.80877489, 0.00607418, 0.00808749, 0.00073193, 87.62500763, 1208.47619629, 40.31999969, 0.00000000
1, 0.7000, 70, -0.08553743, -0.73984987, -0.67885828, 0.19583865, -0.43804383, -0.50584626, 9.55360222, -65.83870697, 37.48382568, 47.22874832, -4.53902149, 122.14904022, 0.42893875, -0.22535436, -0.33278173, -0.80900139, 0.00676359, 0.00814371, 0.00180519, 87.62500763, 1208.47619629, 40.31999969, 0.00000000
1, 0.7100, 71, -0.08414602, -0.74237835, -0.67766124, -0.14242002, -0.38581997, -0.71465296, 9.69985962, -66.41043091, 37.76930618, 47.22793579, -4.53639984, 122.14132690, 0.42900330, -0.22535558, -0.33277130, -0.80897123, 0.00504163, 0.01060940, 0.00071460, 87.62500763, 1208.47619629, 40.31999969, 0.00000000
1, 0.7200, 72, -0.08414671, -0.74228060, -0.67412215, -0.49860495, -0.57645452, -0.77030587, 9.69985962, -66.41043091, 37.76930618, 47.22369766, -4.53465891, 122.13182831, 0.42908424, -0.22535522, -0.33272964, -0.80894548, 0.00507460, 0.01054367, -0.00286283, 87.62500763, 1208.47619629, 40.31999969, 0.00000000
1, 0.7300, 73, -0.08368915, -0.74156427, -0.67466587, -0.67706949, -0.69821739, -0.75474137, 9.37077904, -65.83870697, 37.75027084, 47.21774292, -4.53386259, 122.12154388, 0.42917112, -0.22535725, -0.33267051, -0.80892313, 0.00463560, 0.00989571, -0.00239515, 87.62500763, 1208.47619629, 40.31999969, 0.00000000
1, 0.7400, 74, -0.08242133, -0.73984748, -0.67408586, -0.83561957, -1.19891989, -0.64173472, 9.48047066, -67.15808105, 37.69317627, 47.21042252, -4.53729725, 122.10832977, 0.42926767, -0.22539195, -0.33257920, -0.80889976, 0.00334325, 0.00826138, -0.00306149, 87.62500763, 1208.47619629, 40.31999969, 0.00000000
1, 0.7500, 75, -0.08334666, -0.73951036, -0.67507815, -1.02825403, -1.43774068, -0.82194930, 9.26108551, -65.88268280, 37.35059738, 47.20744705, -4.55059767, 122.15469360, 0.42890358, -0.22533837, -0.33259633, -0.80910081, 0.00415702, 0.00800796, -0.00214659, 87.62500763, 1208.47619629, 40.31999969, 0.00000000
1, 0.7600, 76, -0.08360378, -0.74009699, -0.67286986, -0.77622086, -1.62531102, -0.77392900, 9.40734291, -66.23451233, 37.31253433, 47.20104980, -4.55595779, 122.13745880, 0.42902067, -0.22540160, -0.33249590, -0.80906242, 0.00420654, 0.00864431, -0.00438420, 87.62500763, 1208.47619629, 40.31999969, 0.00000000
1, 0.7700, 77, -0.08365859, -0.74416965, -0.66979200, -0.77868354, -1.48952174, -0.68317515, 10.24832726, -66.19053650, 37.73123932, 47.19450760, -4.56106424, 122.12183380, 0.42912748, -0.22545777, -0.33239859, -0.80903012, 0.00417073, 0.01279669, -0.00753754, 87.62500763, 1208.47619629, 40.31999969, 0.00000000
1, 0.7800, 78, -0.08380817, -0.74661517, -0.66950351, -1.01313031, -1.37156785, -0.66239953, 10.24832726, -66.19053650, 37.73123932, 47.18553543, -4.56552458, 122.10722351, 0.42923391, -0.22549741, -0.33228871, -0.80900764, 0.00423377, 0.01533759, -0.00791882, 87.62500763, 1208.47619629, 40.31999969, 0.00000000
1, 0.7900, 79, -0.08220924, -0.74532372, -0.67067671, -1.40823853, -1.01130271, -0.84697789, 9.37077904, -67.29001617, 37.61705017, 47.17250061, -4.56618261, 122.09401703, 0.42935076, -0.22549146, -0.33216807, -0.80899686, 0.00260197, 0.01418972, -0.00689673, 87.62500763, 1208.47619629, 40.31999969, 0.00000000
1, 0.8000, 80, -0.08052018, -0.74450672, -0.67065245, -1.48152745, -0.84033769, -0.84315932, 9.33421421, -67.37797546, 38.09284973, 47.17790222, -4.56970930, 122.14286804, 0.42898384, -0.22539447, -0.33228827, -0.80916917, 0.00089403, 0.01348038, -0.00703502, 87.62500763, 1208.47619629, 40.31999969, 0.00000000
1, 0.8100, 81, -0.08060078, -0.74354339, -0.67387706, -1.51775694, -0.71969002, -0.89324695, 9.33421421, -65.92666626, 37.27447128, 47.16363144, -4.56805134, 122.13148499, 0.42909762, -0.22536255, -0.33217171, -0.80916560, 0.00094545, 0.01251628, -0.00380598, 87.62500763, 1208.47619629, 40.31999969, 0.00000000
1, 0.8200, 82, -0.08022762, -0.73966914, -0.67762977, -1.55521500, -0.65250647, -0.82140660, 9.48047066, -65.35493469, 37.50285721, 47.14890289, -4.56646442, 122.12107849, 0.42920515, -0.22532657, -0.33205357, -0.80916709, 0.00059816, 0.00880539, -0.00023259, 87.62500763, 1208.47619629, 40.31999969, 0.00000000
1, 0.8300, 83, -0.07806261, -0.73891717, -0.67886221, -1.80656958, -0.62017053, -0.81995767, 9.48047066, -65.35493469, 37.50285721, 47.13165283, -4.56467295, 122.11093140, 0.42931655, -0.22527896, -0.33191893, -0.80917650, -0.00153168, 0.00824589, 0.00078835, 87.62500763, 1208.47619629, 40.31999969, 0.00000000
1, 0.8400, 84, -0.07814071, -0.73765701, -0.67565411, -1.91279006, -0.63673466, -0.90787244, 9.73642254, -67.59787750, 38.03575134, 47.11338806, -4.56235552, 122.10004425, 0.42943668, -0.22522597, -0.33177784, -0.80918539, -0.00141929, 0.00720058, -0.00265527, 87.62500763, 1208.47619629, 40.31999969, 0.00000000
1, 0.8500, 85, -0.07864302, -0.73229629, -0.67383659, -1.75261843, -0.63690126, -0.82047445, 10.06550503, -67.24604034, 38.34026337, 47.09495926, -4.56333399, 122.15083313, 0.42911109, -0.22501670, -0.33174354, -0.80943030, -0.00089188, 0.00204445, -0.00469603, 87.62500763, 1208.47619629, 40.31999969, 0.00000000
1, 0.8600, 86, -0.07961969, -0.73146456, -0.67334902, -1.75286114, -0.63718778, -0.80290151, 9.29764843, -67.07012177, 37.21737671, 47.07824707, -4.56179428, 122.14065552, 0.42922068, -0.22497284, -0.33161163, -0.80943841, 0.00007402, 0.00142798, -0.00541392, 87.62500763, 1208.47619629, 40.31999969, 0.00000000
1, 0.8700, 87, -0.08230321, -0.73057795, -0.67604882, -1.46942616, -0.36163861, -0.72766244, 9.80955124, -66.01461792, 37.29350281, 47.06415176, -4.55892849, 122.13303375, 0.42931142, -0.22492230, -0.33150858, -0.80944669, 0.00279780, 0.00072013, -0.00291102, 87.62500763, 1208.47619629, 40.31999969, 0.00000000
1, 0.8800, 88, -0.08268150, -0.73050731, -0.67900622, -1.02184796, -0.30694965, -0.71030396, 9.80955124, -66.01461792, 37.29350281, 47.05450058, -4.55581570, 122.12593079, 0.42939055, -0.22488514, -0.33143887, -0.80944359, 0.00322989, 0.00078110, -0.00010128, 87.62500763, 1208.47619629, 40.31999969, 0.00000000
1, 0.8900, 89, -0.08181642, -0.73071671, -0.67844445, -0.37655431, -0.30217153, -0.69459969, 9.80955124, -66.19053650, 37.63607788, 47.05128479, -4.55279160, 122.11894989, 0.42945576, -0.22487229, -0.33141455, -0.80942249, 0.00242238, 0.00105450, -0.00073865, 87.62500763, 1208.47619629, 40.31999969, 0.00000000
1, 0.9000, 90, -0.08385719, -0.73492819, -0.67812771, 0.19805859, -0.57411975, -0.57902706, 10.10206985, -66.32247925, 38.05478668, 47.06538010, -4.56683874, 122.17356110, 0.42899731, -0.22486442, -0.33156520, -0.80960590, 0.00441996, 0.00523236, -0.00101428, 87.62500763, 1208.47619629, 40.31999969, 0.00000000
1, 0.9100, 91, -0.08496637, -0.73738855, -0.67778820, 0.71798801, -0.58747923, -0.56332058, 9.55360222, -66.76226807, 37.71220779, 47.07321167, -4.56671810, 122.16539001, 0.42904007, -0.22491656, -0.33160502, -0.80955261, 0.00534875, 0.00752890, -0.00115643, 87.62500763, 1208.47619629, 40.31999969, 0.00000000
1, 0.9200, 92, -0.08503091, -0.74031824, -0.67568690, 1.32475138, -0.58613449, -0.35420927, 9.33421421, -67.90572357, 37.99768829, 47.08699036, -4.56811953, 122.15866852, 0.42905605, -0.22499733, -0.33168358, -0.80948949, 0.00539902, 0.01031765, -0.00310454, 87.62500763, 1208.47619629, 40.31999969, 0.00000000
1, 0.9300, 93, -0.08613513, -0.74418169, -0.67332673, 1.42593944, -0.12474450, -0.18661395, 9.33421421, -67.90572357, 37.99768829, 47.10142899, -4.56760740, 122.15648651, 0.42904478, -0.22505416, -0.33178329, -0.80943882, 0.00649662, 0.01400961, -0.00527951, 87.62500763, 1208.47619629, 40.31999969, 0.00000000
1, 0.9400, 94, -0.08674411, -0.74523932, -0.67254096, 0.59695929, 0.10663036, -0.03858648, 9.33421421, -65.57482910, 37.31253433, 47.10735703, -4.56659508, 122.15700531, 0.42903268, -0.22506784, -0.33183020, -0.80942208, 0.00712054, 0.01494940, -0.00594009, 87.62500763, 1208.47619629, 40.31999969, 0.00000000
1, 0.9500, 95, -0.08736677, -0.74661005, -0.67320377, -0.53221232, 0.20240305, -0.13858773, 9.11482811, -65.61880493, 37.44575882, 47.15955353, -4.59009504, 122.22032166, 0.42840755, -0.22524250, -0.33222970, -0.80954087, 0.00766117, 0.01617602, -0.00511239, 87.62500763, 1208.47619629, 40.31999969, 0.00000000
1, 0.9600, 96, -0.08519202, -0.74756593, -0.67241764, -1.24685621, 0.04383345, -0.22762628, 9.26108551, -67.29001617, 38.09284973, 47.14718628, -4.58812571, 122.21909332, 0.42844686, -0.22518620, -0.33214778, -0.80956930, 0.00518924, 0.01675107, -0.00545344, 87.62500763, 1208.47619629, 40.31999969, 0.00000000
1, 0.9700, 97, -0.08358812, -0.74670452, -0.67337853, -1.73164988, 0.05661460, -0.19071758, 9.91924763, -66.80625153, 38.05478668, 47.12993240, -4.58634329, 122.21820068, 0.42849270, -0.22511190, -0.33203125, -0.80961341, 0.00361439, 0.01607350, -0.00469410, 87.62500763, 1208.47619629, 40.31999969, 0.00000000
1, 0.9800, 98, -0.08360071, -0.74443221, -0.67247009, -2.37842059, 0.24080352, -0.22002286, 9.91924763, -66.80625153, 38.05478668, 47.10613251, -4.58309174, 122.21846008, 0.42854798, -0.22499956, -0.33187652, -0.80967879, 0.00368292, 0.01405200, -0.00587928, 87.62500763, 1208.47619629, 40.31999969, 0.00000000
1, 0.9900, 99, -0.08008952, -0.74101633, -0.67317647, -2.32434511, 0.10285717, -0.15277520, 9.55360222, -65.92666626, 37.27447128, 47.08290863, -4.58127260, 122.21819305, 0.42860138, -0.22490092, -0.33171910, -0.80974245, 0.00020835, 0.01091407, -0.00547634, 87.62500763, 1208.47619629, 40.31999969, 0.00000000
1, 1.0000, 100, -0.07940573, -0.73684794, -0.67396992, -2.41483331, 0.03182336, -0.04852187, 9.66329384, -66.23451233, 37.06512070, 47.06544113, -4.58574152, 122.28087616, 0.42817828, -0.22468516, -0.33170086, -0.81003362, -0.00048463, 0.00701018, -0.00496632, 87.62500763, 1208.47619629, 40.31999969, 0.00000000
1, 1.0100, 101, -0.07897024, -0.73331225, -0.67350900, -2.12674785, -0.06855574, -0.06909204, 10.21176243, -66.85022736, 37.57898331, 47.04425049, -4.58570385, 122.27989197, 0.42822683, -0.22460853, -0.33154932, -0.81009126, -0.00097642, 0.00368243, -0.00564399, 87.62500763, 1208.47619629, 40.31999969, 0.00000000
1, 1.0200, 102, -0.07854354, -0.73218822, -0.67481935, -1.80669630, -0.22526971, 0.22546519, 9.11482811, -66.19053650, 37.69317627, 47.02619171, -4.58888721, 122.27978516, 0.42825279, -0.22456342, -0.33140874, -0.81014752, -0.00143701, 0.00278480, -0.00457285, 87.62500763, 1208.47619629, 40.31999969, 0.00000000
1, 1.0300, 103, -0.07963633, -0.73229027, -0.67713964, -1.57235706, -0.16997662, 0.10286245, 10.24832726, -67.15808105, 37.59801865, 47.01050568, -4.59079695, 122.27923584, 0.42828128, -0.22451964, -0.33128917, -0.81019348, -0.00038930, 0.00308985, -0.00246511, 87.62500763, 1208.47619629, 40.31999969, 0.00000000
1, 1.0400, 104, -0.07900175, -0.73124230, -0.67727906, -1.27008533, -0.10126627, 0.24400854, 10.24832726, -67.15808105, 37.59801865, 46.99773407, -4.59327698, 122.28016663, 0.42829189, -0.22448644, -0.33119082, -0.81023741, -0.00106431, 0.00221054, -0.00250179, 87.62500763, 1208.47619629, 40.31999969, 0.00000000
1, 1.0500, 105, -0.08027559, -0.73130214, -0.67658573, -0.96514618, -0.02940387, 0.19185136, 9.73642254, -66.85022736, 37.08415222, 46.99697113, -4.59966230, 122.34420776, 0.42782006, -0.22434278, -0.33128545, -0.81048781, 0.00015435, 0.00237106, -0.00329664, 87.62500763, 1208.47619629, 40.31999969, 0.00000000
1, 1.0600, 106, -0.08285616, -0.73290604, -0.67585617, -0.91106033, 0.12739897, 0.07193429, 9.22451973, -65.83870697, 37.08415222, 46.98775101, -4.59932375, 122.34564209, 0.42782909, -0.22430184, -0.33122432, -0.81051928, 0.00266583, 0.00401150, -0.00405730, 87.62500763, 1208.47619629, 40.31999969, 0.00000000
1, 1.0700, 107, -0.08351646, -0.73315513, -0.67417288, -0.96315724, 0.12898277, -0.05092113, 9.22451973, -65.75074005, 37.21737671, 46.97806931, -4.59807062, 122.34624481, 0.42784777, -0.22425526, -0.33116201, -0.81054771, 0.00334507, 0.00437401, -0.00586437, 87.62500763, 1208.47619629, 40.31999969, 0.00000000
1, 1.0800, 108, -0.08535247, -0.73443538, -0.67789435, -0.99803430, 0.18187900, -0.15517220, 9.88268185, -68.34552002, 37.35059738, 46.96806717, -4.59569216, 122.34650421, 0.42787308, -0.22420065, -0.33110127, -0.81057435, 0.00520991, 0.00576793, -0.00226805, 87.62500763, 1208.47619629, 40.31999969, 0.00000000
1, 1.0900, 109, -0.08450180, -0.73552424, -0.67764676, -0.81991488, 0.23388453, -0.10188898, 9.88268185, -68.34552002, 37.35059738, 46.95979309, -4.59335375, 122.34752655, 0.42788953, -0.22415058, -0.33105403, -0.81059879, 0.00440132, 0.00696330, -0.00263473, 87.62500763, 1208.47619629, 40.31999969, 0.00000000
1, 1.1000, 110, -0.08441868, -0.73529017, -0.67693651, -0.73329109, 0.35236502, 0.04096339, 10.24832726, -67.24604034, 37.12221527, 46.97182465, -4.60542583, 122.41260529, 0.42736694, -0.22409123, -0.33121845, -0.81082368, 0.00429918, 0.00676177, -0.00337759, 87.62500763, 1208.47619629, 40.31999969, 0.00000000
1, 1.1100, 111, -0.08387080, -0.73542464, -0.67560840, -0.52029461, 0.35147429, 0.19849765, 9.48047066, -65.66278839, 37.12221527, 46.96630478, -4.60448027, 122.41654205, 0.42735294, -0.22405268, -0.33119082, -0.81085300, 0.00359188, 0.00681126, -0.00459595, 87.62500763, 1208.47619629, 40.31999969, 0.00000000
1, 1.1200, 112, -0.08482710, -0.73574704, -0.67537498, -0.12288490, 0.11529019, 0.13958129, 9.73642254, -65.97064209, 37.55995178, 46.96493149, -4.60471249, 122.41834259, 0.42734215, -0.22404400, -0.33118373, -0.81086403, 0.00455050, 0.00716630, -0.00486442, 87.62500763, 1208.47619629, 40.31999969, 0.00000000
1, 1.1300, 113, -0.08418363, -0.73499626, -0.67600876, -0.12301999, -0.05824338, 0.25898150, 10.06550503, -66.27849579, 37.71220779, 46.96359634, -4.60700607, 122.41967773, 0.42732790, -0.22405104, -0.33116779, -0.81087613, 0.00388095, 0.00643332, -0.00424691, 87.62500763, 1208.47619629, 40.31999969, 0.00000000
1, 1.1400, 114, -0.08237922, -0.73485726, -0.67737257, 0.07849500, -0.36372644, 0.14647265, 10.06550503, -66.27849579, 37.71220779, 46.96451569, -4.61055803, 122.41802979, 0.42732650, -0.22408393, -0.33115694, -0.81087220, 0.00202446, 0.00629646, -0.00287902, 87.62500763, 1208.47619629, 40.31999969, 0.00000000
1, 1.1500, 115, -0.08152992, -0.73513263, -0.67847300, -0.18877590, -0.60654861, 0.17734201, 9.80955124, -66.45441437, 37.38866425, 46.97190857, -4.62304735, 122.47763824, 0.42685002, -0.22402582, -0.33127618, -0.81109029, 0.00105809, 0.00655423, -0.00174592, 87.62500763, 1208.47619629, 40.31999969, 0.00000000
1, 1.1600, 116, -0.08157119, -0.73568618, -0.67623127, -0.27672005, -0.55321485, 0.02052765, 10.13863087, -67.55389404, 37.76930618, 46.96946335, -4.62697315, 122.47372437, 0.42687008, -0.22405531, -0.33123562, -0.81108832, 0.00092752, 0.00706761, -0.00392434, 87.62500763, 1208.47619629, 40.31999969, 0.00000000
1, 1.1700, 117, -0.08248866, -0.73347759, -0.67797929, -0.41961744, -0.58835930, 0.00264774, 9.88268185, -67.64184570, 37.29350281, 46.96560669, -4.63100624, 122.46942902, 0.42689505, -0.22408137, -0.33118391, -0.81108898, 0.00177683, 0.00489889, -0.00221089, 87.62500763, 1208.47619629, 40.31999969, 0.00000000
1, 1.1800, 118, -0.08355344, -0.73405552, -0.67907196, -0.49034131, -0.48371294, -0.13556232, 9.59016514, -66.54237366, 37.31253433, 46.96106720, -4.63331652, 122.46495056, 0.42692819, -0.22409341, -0.33113384, -0.81108862, 0.00278901, 0.00553508, -0.00117439, 87.62500763, 1208.47619629, 40.31999969, 0.00000000
1, 1.1900, 119, -0.08285725, -0.73643303, -0.67646611, -0.41825369, -0.36136153, -0.23868047, 9.59016514, -66.54237366, 37.31253433, 46.95723343, -4.63403702, 122.46067810, 0.42696372, -0.22409651, -0.33109546, -0.81108481, 0.00206868, 0.00796053, -0.00382872, 87.62500763, 1208.47619629, 40.31999969, 0.00000000
1, 1.2000, 120, -0.08318155, -0.73637146, -0.67483848, -0.52041662, -0.58118010, -0.48908558, 9.44390774, -66.63032532, 37.06512070, 46.96780014, -4.64516783, 122.51571655, 0.42651781, -0.22405410, -0.33123371, -0.81127459, 0.00233760, 0.00790468, -0.00545587, 87.62500763, 1208.47619629, 40.31999969, 0.00000000
1, 1.2100, 121, -0.08288000, -0.73880339, -0.67303723, -0.53207040, -0.92065114, -0.72470486, 9.62673092, -66.58635712, 37.92155838, 46.96343231, -4.64615440, 122.50399017, 0.42660621, -0.22407858, -0.33117598, -0.81124508, 0.00188152, 0.01026630, -0.00716347, 87.62500763, 1208.47619629, 40.31999969, 0.00000000
1, 1.2200, 122, -0.08303156, -0.73965198, -0.67547572, -0.63695484, -1.05699790, -0.83272028, 10.06550503, -68.30153656, 37.50285721, 46.95816040, -4.64727974, 122.49053955, 0.42670813, -0.22410561, -0.33110783, -0.81121171, 0.00201633, 0.01117893, -0.00479154, 87.62500763, 1208.47619629, 40.31999969, 0.00000000
1, 1.2300, 123, -0.08376500, -0.73847955, -0.67510605, -0.56014717, -1.34516704, -1.01479685, 9.62673092, -68.43347931, 37.71220779, 46.95392227, -4.64904213, 122.47372437, 0.42682981, -0.22415067, -0.33103797, -0.81116378, 0.00273215, 0.01006439, -0.00522111, 87.62500763, 1208.47619629, 40.31999969, 0.00000000
1, 1.2400, 124, -0.08310039, -0.73885000, -0.67614764, -0.38136515, -1.50042737, -0.87798154, 9.62673092, -68.43347931, 37.71220779, 46.95149612, -4.65286541, 122.45670319, 0.42694277, -0.22421730, -0.33097228, -0.81111270, 0.00200897, 0.01047409, -0.00421464, 87.62500763, 1208.47619629, 40.31999969, 0.00000000
1, 1.2500, 125, -0.08281956, -0.73623163, -0.67763340, -0.23591875, -1.58363307, -0.96806747, 9.99237347, -66.85022736, 37.54092026, 46.95545578, -4.66204262, 122.49997711, 0.42659935, -0.22417079, -0.33104852, -0.81127512, 0.00163713, 0.00785741, -0.00271980, 87.62500763, 1208.47619629, 40.31999969, 0.00000000
1, 1.2600, 126, -0.08099578, -0.73504686, -0.67957419, -0.29305986, -1.43197250, -0.82407761, 8.85887623, -66.41043091, 37.38866425, 46.95384216, -4.66579247, 122.48383331, 0.42670476, -0.22423744, -0.33099064, -0.81122488, -0.00032704, 0.00665489, -0.00074323, 87.62500763, 1208.47619629, 40.31999969, 0.00000000
1, 1.2700, 127, -0.08194349, -0.73695379, -0.67741364, -0.70737731, -1.28140664, -0.78448784, 9.44390774, -66.45441437, 37.69317627, 46.94797134, -4.66880417, 122.46906281, 0.42681116, -0.22427917, -0.33090821, -0.81119102, 0.00056596, 0.00861338, -0.00295238, 87.62500763, 1208.47619629, 40.31999969, 0.00000000
1, 1.2800, 128, -0.08116092, -0.73541403, -0.67767096, -1.11999714, -1.12883461, -0.86790913, 10.10206985, -68.43347931, 37.71220779, 46.93793106, -4.67017126, 122.45484161, 0.42692709, -0.22429229, -0.33080387, -0.81116897, -0.00025027, 0.00717418, -0.00279869, 87.62500763, 1208.47619629, 40.31999969, 0.00000000
1, 1.2900, 129, -0.08331268, -0.73484927, -0.67679816, -1.49386013, -1.02457416, -1.12824786, 9.44390774, -66.80625153, 37.75027084, 46.92422485, -4.66892719, 122.43961334, 0.42706576, -0.22427659, -0.33068201, -0.81115001, 0.00190888, 0.00676003, -0.00383359, 87.62500763, 1208.47619629, 40.31999969, 0.00000000
1, 1.3000, 130, -0.08424452, -0.73408014, -0.67418748, -1.67041707, -1.24810719, -1.18514204, 9.44390774, -66.80625153, 37.75027084, 46.91278076, -4.67395067, 122.48328400, 0.42676285, -0.22414277, -0.33066648, -0.81135273, 0.00282744, 0.00615948, -0.00662288, 87.62500763, 1208.47619629, 40.31999969, 0.00000000
1, 1.3100, 131, -0.08418708, -0.73113251, -0.67548877, -1.16706145, -1.57207680, -1.07044542, 9.18795681, -67.24604034, 37.59801865, 46.90264511, -4.67687607, 122.46443176, 0.42690682, -0.22417973, -0.33054620, -0.81131583, 0.00267434, 0.00332893, -0.00543533, 87.62500763, 1208.47619629, 40.31999969, 0.00000000
1, 1.3200, 132, -0.08361359, -0.73005253, -0.67578244, -0.69990313, -1.67133546, -1.07396150, 9.51703644, -67.24604034, 37.21737671, 46.89725113, -4.68045282, 122.44483185, 0.42704472, -0.22424097, -0.33045539, -0.81126320, 0.00204305, 0.00233439, -0.00522599, 87.62500763, 1208.47619629, 40.31999969, 0.00000000
1, 1.3300, 133, -0.08108822, -0.72743261, -0.67918217, -0.34063035, -1.68510139, -1.11050689, 8.82231140, -66.89420319, 37.21737671, 46.89547348, -4.68385887, 122.42487335, 0.42717862, -0.22431557, -0.33039021, -0.81119865, -0.00054797, -0.00024620, -0.00186045, 87.62500763, 1208.47619629, 40.31999969, 0.00000000
1, 1.3400, 134, -0.08137380, -0.72933811, -0.67846048, -0.12573160, -1.54504490, -1.17853308, 9.11482811, -66.67430878, 37.31253433, 46.89579773, -4.68581009, 122.40547180, 0.42730904, -0.22438626, -0.33034679, -0.81112808, -0.00030663, 0.00167128, -0.00258969, 87.62500763, 1208.47619629, 40.31999969, 0.00000000
1, 1.3500, 135, -0.08050638, -0.73165083, -0.67791378, -0.03690886, -1.37195408, -1.22790062, 9.11482811, -66.67430878, 37.31253433, 46.90314484, -4.68801355, 122.44887543, 0.42698029, -0.22430377, -0.33047503, -0.81127179, -0.00120429, 0.00395800, -0.00310494, 87.62500763, 1208.47619629, 40.31999969, 0.00000000
1, 1.3600, 136, -0.07918776, -0.73388702, -0.67597699, 0.12322511, -1.23346567, -1.22547913, 9.66329384, -66.63032532, 37.55995178, 46.90579987, -4.68749094, 122.43144226, 0.42710021, -0.22436033, -0.33046177, -0.81119841, -0.00253401, 0.00610942, -0.00494979, 87.62500763, 1208.47619629, 40.31999969, 0.00000000
1, 1.3700, 137, -0.08020213, -0.73451704, -0.67562336, 0.17717610, -1.25019646, -1.22599602, 9.62673092, -67.81777191, 37.90252686, 46.90900803, -4.68707800, 122.41387177, 0.42721963, -0.22442007, -0.33045170, -0.81112307, -0.00151752, 0.00670834, -0.00527044, 87.62500763, 1208.47619629, 40.31999969, 0.00000000
1, 1.3800, 138, -0.08172548, -0.73455286, -0.67474794, 0.53322625, -1.23309541, -1.05094290, 9.95580864, -67.64184570, 37.59801865, 46.91566086, -4.68782806, 122.39763641, 0.42731920, -0.22449695, -0.33046404, -0.81104445, 0.00000781, 0.00667745, -0.00607477, 87.62500763, 1208.47619629, 40.31999969, 0.00000000
1, 1.3900, 139, -0.08354034, -0.73509789, -0.67867935, 0.89043522, -1.12793815, -1.01466846, 9.11482811, -67.24604034, 37.14124680, 46.92580795, -4.68811798, 122.38241577, 0.42740604, -0.22458068, -0.33050483, -0.81095874, 0.00181176, 0.00711632, -0.00202850, 87.62500763, 1208.47619629, 40.31999969, 0.00000000
1, 1.4000, 140, -0.08599499, -0.73559737, -0.68024814, 0.78002191, -1.11478162, -0.82069266, 9.11482811, -67.24604034, 37.14124680, 46.94009018, -4.69972992, 122.43100739, 0.42699704, -0.22457436, -0.33065498, -0.81111485, 0.00419766, 0.00748980, -0.00031681, 87.62500763, 1208.47619629, 40.31999969, 0.00000000
1, 1.4100, 141, -0.08575395, -0.73793346, -0.67878532, 0.54694384, -1.01254761, -0.88814324, 9.55360222, -67.02614594, 37.00802231, 46.94666672, -4.70015907, 122.41749573, 0.42707837, -0.22464080, -0.33067334, -0.81104612, 0.00381549, 0.00969601, -0.00162357, 87.62500763, 1208.47619629, 40.31999969, 0.00000000
1, 1.4200, 142, -0.08609455, -0.73702389, -0.67681336, 0.33016992, -0.94677091, -0.81578386, 9.51703644, -68.43347931, 37.25543976, 46.95099258, -4.70065928, 122.40496826, 0.42715696, -0.22469656, -0.33067739, -0.81098759, 0.00414502, 0.00873268, -0.00353675, 87.62500763, 1208.47619629, 40.31999969, 0.00000000
1, 1.4300, 143, -0.08638764, -0.73539203, -0.67812794, 0.50986308, -0.77154392, -0.95327628, 10.24832726, -67.68582916, 37.25543976, 46.95709610, -4.69895601, 122.39278412, 0.42723668, -0.22474265, -0.33070344, -0.81092221, 0.00445857, 0.00703727, -0.00215662, 87.62500763, 1208.47619629, 40.31999969, 0.00000000
1, 1.4400, 144, -0.08641621, -0.73249078, -0.67650747, 0.64927417, -0.51513261, -0.82526398, 9.77298546, -68.12562561, 37.31253433, 46.96435165, -4.69644117, 122.38334656, 0.42729720, -0.22477949, -0.33074635, -0.81086260, 0.00452381, 0.00405143, -0.00369085, 87.62500763, 1208.47619629, 40.31999969, 0.00000000
1, 1.4500, 145, -0.08711500, -0.73109102, -0.67699736, 0.82597113, -0.36078361, -0.73466802, 9.77298546, -68.12562561, 37.31253433, 46.97952271, -4.70720577, 122.43750763, 0.42684975, -0.22475438, -0.33091709, -0.81103557, 0.00520986, 0.00253625, -0.00307581, 87.62500763, 1208.47619629, 40.31999969, 0.00000000
1, 1.4600, 146, -0.08710233, -0.73204017, -0.67672712, 0.77119023, -0.41438323, -0.63015747, 9.84611702, -68.16960144, 37.54092026, 46.98783112, -4.70542860, 122.43016052, 0.42689118, -0.22479424, -0.33096859, -0.81098175, 0.00505937, 0.00333223, -0.00316539, 87.62500763, 1208.47619629, 40.31999969, 0.00000000
1, 1.4700, 147, -0.08582667, -0.73628646, -0.67692822, 0.52264833, -0.69079727, -0.63520819, 9.26108551, -66.54237366, 37.17930984, 46.99383163, -4.70549726, 122.42073059, 0.42694584, -0.22484426, -0.33099228, -0.81092942, 0.00379628, 0.00749624, -0.00287749, 87.62500763, 1208.47619629, 40.31999969, 0.00000000
1, 1.4800, 148, -0.08383337, -0.73837197, -0.67818290, 0.38037577, -0.79455286, -0.65453249, 9.48047066, -67.11410522, 37.27447128, 46.99848557, -4.70612621, 122.41043091, 0.42700762, -0.22489575, -0.33100247, -0.81087846, 0.00179263, 0.00952543, -0.00156124, 87.62500763, 1208.47619629, 40.31999969, 0.00000000
1, 1.4900, 149, -0.08502427, -0.74027437, -0.67654806, 0.27370751, -0.95034516, -0.62232476, 9.48047066, -66.76226807, 37.44575882, 47.00214386, -4.70805550, 122.39919281, 0.42707375, -0.22495520, -0.33099866, -0.81082875, 0.00296404, 0.01137538, -0.00313760, 87.62500763, 1208.47619629, 40.31999969, 0.00000000
1, 1.5000, 150, -0.08386146, -0.74169880, -0.67599171, 0.08020552, -1.12084150, -0.78352201, 9.48047066, -66.76226807, 37.44575882, 47.02333069, -4.71407270, 122.44637299, 0.42667896, -0.22493955, -0.33121729, -0.81095159, 0.00174513, 0.01271833, -0.00359963, 87.62500763, 1208.47619629, 40.31999969, 0.00000000
1, 1.5100, 151, -0.08228079, -0.74041039, -0.67501140, -0.01063225, -1.01891482, -0.76352280, 9.80955124, -67.02614594, 37.14124680, 47.02427292, -4.71543455, 122.43368530, 0.42676261, -0.22498921, -0.33119360, -0.81090349, 0.00007888, 0.01124704, -0.00437343, 87.62500763, 1208.47619629, 40.31999969, 0.00000000
1, 1.5200, 152, -0.08426902, -0.73772389, -0.67910606, -0.52641279, -1.43408799, -0.80582976, 9.77298546, -67.15808105, 36.93189621, 47.02032471, -4.71931171, 122.41763306, 0.42687151, -0.22504780, -0.33111873, -0.81086046, 0.00202121, 0.00858730, -0.00030187, 87.62500763, 1208.47619629, 40.31999969, 0.00000000
1, 1.5300, 153, -0.08666161, -0.73736984, -0.67863739, -0.52839035, -1.29772544, -0.75022191, 9.11482811, -66.10257721, 36.70351410, 47.01624680, -4.72267246, 122.40296173, 0.42697248, -0.22509827, -0.33104771, -0.81082225, 0.00434937, 0.00828350, -0.00081675, 87.62500763, 1208.47619629, 40.31999969, 0.00000000
1, 1.5400, 154, -0.08718641, -0.73658574, -0.67660677, -0.78291851, -1.07842827, -0.63936281, 9.33421421, -66.93818665, 36.91286469, 47.00942993, -4.72534657, 122.39067841, 0.42706427, -0.22512691, -0.33096465, -0.81079984, 0.00482163, 0.00756782, -0.00291440, 87.62500763, 1208.47619629, 40.31999969, 0.00000000
1, 1.5500, 155, -0.08628108, -0.73469597, -0.67375267, -0.78455120, -0.87230849, -0.65260267, 9.73642254, -66.93818665, 37.31253433, 47.01090240, -4.73976326, 122.44222260, 0.42665038, -0.22508354, -0.33101901, -0.81100756, 0.00382505, 0.00574569, -0.00582999, 87.62500763, 1208.47619629, 40.31999969, 0.00000000
1, 1.5600, 156, -0.08499855, -0.73298270, -0.67489558, -0.53583688, -0.56101584, -0.68197590, 9.73642254, -68.03766632, 37.31253433, 47.00627136, -4.73860359, 122.43343353, 0.42672542, -0.22508365, -0.33097363, -0.81098670, 0.00237931, 0.00403289, -0.00466765, 87.62500763, 1208.47619629, 40.31999969, 0.00000000
1, 1.5700, 157, -0.08732606, -0.73400760, -0.67588216, -0.42630747, -0.55787945, -0.82287145, 10.02893925, -67.11410522, 37.54092026, 47.00281143, -4.73639441, 122.42371368, 0.42680806, -0.22508350, -0.33093879, -0.81095731, 0.00473552, 0.00510618, -0.00373647, 87.62500763, 1208.47619629, 40.31999969, 0.00000000
1, 1.5800, 158, -0.08464924, -0.73283529, -0.67621368, -0.37157524, -0.66037399, -0.82519376, 9.55360222, -66.45441437, 37.02705383, 46.99996185, -4.73486519, 122.41322327, 0.42689279, -0.22509256, -0.33090410, -0.81092435, 0.00209038, 0.00396594, -0.00344318, 87.62500763, 1208.47619629, 40.31999969, 0.00000000
1, 1.5900, 159, -0.08493224, -0.73159248, -0.67799246, -0.11928304, -0.79562658, -0.82880926, 8.96856880, -66.67430878, 37.17930984, 46.99971771, -4.73423052, 122.40171814, 0.42697674, -0.22512050, -0.33088231, -0.81088132, 0.00239176, 0.00273445, -0.00167878, 87.62500763, 1208.47619629, 40.31999969, 0.00000000
1, 1.6000, 160, -0.08428509, -0.73347592, -0.67781430, 0.27563158, -1.00008404, -0.72884637, 8.96856880, -66.01461792, 37.52188873, 47.00846863, -4.74331379, 122.45216370, 0.42657340, -0.22507039, -0.33100721, -0.81105655, 0.00170528, 0.00458720, -0.00181930, 87.62500763, 1208.47619629, 40.31999969, 0.00000000
1, 1.6100, 161, -0.08497562, -0.73378682, -0.67610103, 0.56037027, -0.94838065, -0.60558242, 8.96856880, -66.01461792, 37.52188873, 47.01498413, -4.74535370, 122.44106293, 0.42663267, -0.22514090, -0.33102342, -0.81099921, 0.00226432, 0.00479889, -0.00341010, 87.62500763, 1208.47619629, 40.31999969, 0.00000000
1, 1.6200, 162, -0.08495108, -0.73480773, -0.67709267, 0.79119569, -1.01860130, -0.39682537, 9.48047066, -68.25756073, 37.82640076, 47.02374268, -4.74939966, 122.43087006, 0.42667460, -0.22523099, -0.33104926, -0.81094158, 0.00218133, 0.00572239, -0.00230688, 87.62500763, 1208.47619629, 40.31999969, 0.00000000
1, 1.6300, 163, -0.08537120, -0.73437655, -0.67580193, 1.00514090, -0.82765961, -0.42862219, 9.11482811, -67.64184570, 37.42672729, 47.03453445, -4.75190783, 122.42185211, 0.42670912, -0.22531463, -0.33109799, -0.81088036, 0.00254653, 0.00517505, -0.00346634, 87.62500763, 1208.47619629, 40.31999969, 0.00000000
1, 1.6400, 164, -0.08394269, -0.73091513, -0.67551535, 1.24973249, -0.52123821, -0.15925397, 9.37077904, -66.58635712, 36.95092773, 47.04744339, -4.75428963, 122.41693878, 0.42671084, -0.22539341, -0.33117014, -0.81082797, 0.00107075, 0.00156912, -0.00359203, 87.62500763, 1208.47619629, 40.31999969, 0.00000000
1, 1.6500, 165, -0.08335710, -0.73364621, -0.67380548, 1.05010879, -0.36955702, -0.08514099, 9.48047066, -65.88268280, 36.62738419, 47.08341599, -4.76044798, 122.47530365, 0.42620730, -0.22540127, -0.33151504, -0.81094968, 0.00043154, 0.00408968, -0.00506896, 87.62500763, 1208.47619629, 40.31999969, 0.00000000
1, 1.6600, 166, -0.08437187, -0.73383766, -0.67421788, 0.56872636, -0.30073273, -0.32831734, 9.48047066, -65.88268280, 36.62738419, 47.08946991, -4.76009321, 122.47085571, 0.42622805, -0.22543420, -0.33155051, -0.81091511, 0.00138676, 0.00396602, -0.00431047, 87.62500763, 1208.47619629, 40.31999969, 0.00000000
1, 1.6700, 167, -0.08341729, -0.73436582, -0.67267287, 0.23099537, -0.62930852, -0.33419189, 9.51703644, -67.37797546, 37.23640823, 47.09235382, -4.76192856, 122.46394348, 0.42626539, -0.22547765, -0.33155006, -0.81088364, 0.00041867, 0.00445317, -0.00580978, 87.62500763, 1208.47619629, 40.31999969, 0.00000000
1, 1.6800, 168, -0.08218360, -0.73470038, -0.67155409, 0.35828903, -0.90362781, -0.28761366, 9.26108551, -68.12562561, 37.73123932, 47.09664536, -4.76597691, 122.45533752, 0.42630482, -0.22554661, -0.33154744, -0.81084484, -0.00087762, 0.00475039, -0.00688069, 87.62500763, 1208.47619629, 40.31999969, 0.00000000
1, 1.6900, 169, -0.08454392, -0.73491317, -0.67382753, 0.85934919, -0.81421113, -0.26968867, 9.88268185, -66.54237366, 37.94059372, 47.10589218, -4.76954317, 122.44750977, 0.42633060, -0.22562841, -0.33158323, -0.81079394, 0.00141642, 0.00488614, -0.00451620, 87.62500763, 1208.47619629, 40.31999969, 0.00000000
1, 1.7000, 170, -0.08332352, -0.73663223, -0.67585725, 1.53764510, -0.65649611, -0.14540023, 9.40734291, -68.69735718, 37.27447128, 47.12555313, -4.77550888, 122.50354004, 0.42587620, -0.22558069, -0.33180898, -0.81095362, 0.00012591, 0.00643587, -0.00229575, 87.62500763, 1208.47619629, 40.31999969, 0.00000000
1, 1.7100, 171, -0.08362091, -0.73623258, -0.67438072, 2.05588794, -0.37711206, -0.19384721, 9.40734291, -68.69735718, 37.27447128, 47.14645386, -4.77665091, 122.49944305, 0.42586038, -0.22567816, -0.33194429, -0.81087947, 0.00035227, 0.00577855, -0.00348596, 87.62500763, 1208.47619629, 40.31999969, 0.00000000
1, 1.7200, 172, -0.08363551, -0.73795980, -0.67310101, 2.52302504, -0.28568453, -0.31640261, 9.15139103, -66.49839020, 36.91286469, 47.17204666, -4.77626896, 122.49517822, 0.42584139, -0.22578298, -0.33211845, -0.81078893, 0.00036851, 0.00722317, -0.00446115, 87.62500763, 1208.47619629, 40.31999969, 0.00000000
1, 1.7300, 173, -0.08482541, -0.73677963, -0.67365932, 2.54159760, -0.30212352, -0.35196167, 9.37077904, -66.45441437, 37.33156967, 47.19784164, -4.77574396, 122.49055481, 0.42582488, -0.22588858, -0.33229396, -0.81069613, 0.00156587, 0.00573656, -0.00357306, 87.62500763, 1208.47619629, 40.31999969, 0.00000000
1, 1.7400, 174, -0.08598153, -0.73895687, -0.67196459, 2.36453438, -0.33554348, -0.49274892, 9.51703644, -67.15808105, 37.46479034, 47.22197342, -4.77440739, 122.48471832, 0.42582285, -0.22598590, -0.33245847, -0.81060261, 0.00274120, 0.00762083, -0.00495391, 87.62500763, 1208.47619629, 40.31999969, 0.00000000
1, 1.7500, 175, -0.08507010, -0.74017251, -0.67134798, 1.93476975, -0.51159400, -0.42482191, 9.95580864, -67.29001617, 37.10318375, 47.25224304, -4.77872229, 122.53878784, 0.42536682, -0.22597133, -0.33276209, -0.81072158, 0.00181666, 0.00854783, -0.00525697, 87.62500763, 1208.47619629, 40.31999969, 0.00000000
1, 1.7600, 176, -0.08606939, -0.74407446, -0.67034072, 1.62974417, -0.60089570, -0.35545281, 9.95580864, -67.29001617, 37.10318375, 47.26910400, -4.78018999, 122.53194427, 0.42537728, -0.22606401, -0.33286208, -0.81064922, 0.00274800, 0.01214871, -0.00593017, 87.62500763, 1208.47619629, 40.31999969, 0.00000000
1, 1.7700, 177, -0.08771608, -0.74703991, -0.67136455, 1.05831051, -0.75862634, -0.42733362, 9.51703644, -67.86174774, 37.54092026, 47.28039551, -4.78219843, 122.52342987, 0.42540866, -0.22614454, -0.33291721, -0.81058764, 0.00436237, 0.01496260, -0.00473818, 87.62500763, 1208.47619629, 40.31999969, 0.00000000
1, 1.7800, 178, -0.08685122, -0.74721837, -0.67083335, 0.62997895, -0.74227113, -0.58388388, 9.69985962, -67.07012177, 37.48382568, 47.28748703, -4.78294373, 122.51399231, 0.42545906, -0.22620346, -0.33294576, -0.81053305, 0.00348008, 0.01503408, -0.00515145, 87.62500763, 1208.47619629, 40.31999969, 0.00000000
1, 1.7900, 179, -0.08612109, -0.74808329, -0.67138535, 0.32696342, -0.86387259, -0.63824809, 9.37077904, -65.57482910, 36.93189621, 47.29164505, -4.78411627, 122.50328064, 0.42552280, -0.22625814, -0.33294940, -0.81048280, 0.00272011, 0.01584637, -0.00453870, 87.62500763, 1208.47619629, 40.31999969, 0.00000000
1, 1.8000, 180, -0.08659931, -0.74617076, -0.67328453, 0.23598555, -0.69276166, -0.65195060, 9.22451973, -66.32247925, 37.48382568, 47.30937195, -4.78748751, 122.55622864, 0.42510244, -0.22619344, -0.33316594, -0.81063253, 0.00318161, 0.01385163, -0.00254837, 87.62500763, 1208.47619629, 40.31999969, 0.00000000
1, 1.8100, 181, -0.08589680, -0.74297136, -0.67448467, 0.14779900, -0.63971436, -0.79119200, 9.22451973, -66.32247925, 37.48382568, 47.31170273, -4.78600836, 122.54613495, 0.42517400, -0.22622113, -0.33316830, -0.81058615, 0.00245398, 0.01049092, -0.00117041, 87.62500763, 1208.47619629, 40.31999969, 0.00000000
1, 1.8200, 182, -0.08446698, -0.74164653, -0.67402881, -0.02780399, -0.91413289, -0.88431555, 9.48047066, -68.87326813, 37.23640823, 47.31248093, -4.78570652, 122.53337860, 0.42526364, -0.22625904, -0.33314985, -0.81053615, 0.00103464, 0.00914742, -0.00160725, 87.62500763, 1208.47619629, 40.31999969, 0.00000000
1, 1.8300, 183, -0.08451893, -0.73879421, -0.67320895, -0.22193101, -1.01601815, -1.04406834, 9.33421421, -68.34552002, 37.02705383, 47.31148148, -4.78492165, 122.51878357, 0.42537141, -0.22629233, -0.33311707, -0.81048381, 0.00109587, 0.00630328, -0.00243716, 87.62500763, 1208.47619629, 40.31999969, 0.00000000
1, 1.8400, 184, -0.08367884, -0.73697925, -0.67346370, -0.17151530, -0.96757638, -0.83226448, 9.00513363, -66.58635712, 36.77964020, 47.31082916, -4.78536701, 122.50598907, 0.42546174, -0.22633018, -0.33308542, -0.81043881, 0.00025991, 0.00449458, -0.00218973, 87.62500763, 1208.47619629, 40.31999969, 0.00000000
1, 1.8500, 185, -0.08464750, -0.73723090, -0.67190683, -0.17292148, -0.81320137, -0.82901460, 9.33421421, -66.14656067, 37.31253433, 47.31863022, -4.78948689, 122.55718994, 0.42507085, -0.22623880, -0.33322534, -0.81061184, 0.00121175, 0.00473212, -0.00372913, 87.62500763, 1208.47619629, 40.31999969, 0.00000000
1, 1.8600, 186, -0.08512874, -0.73931986, -0.67331165, 0.18529482, -0.84555286, -0.77805603, 9.62673092, -67.77378845, 37.65511322, 47.32144547, -4.78950548, 122.54565430, 0.42514682, -0.22628291, -0.33322242, -0.81056100, 0.00163543, 0.00673164, -0.00222026, 87.62500763, 1208.47619629, 40.31999969, 0.00000000
1, 1.8700, 187, -0.08656865, -0.74091482, -0.67207736, 0.46944106, -0.62117547, -0.72147322, 9.62673092, -67.77378845, 37.65511322, 47.32693100, -4.78841019, 122.53616333, 0.42520666, -0.22632329, -0.33324683, -0.81050825, 0.00308352, 0.00827466, -0.00339933, 87.62500763, 1208.47619629, 40.31999969, 0.00000000
1, 1.8800, 188, -0.08775827, -0.74312866, -0.67001396, 0.28967285, -0.51909268, -0.75393355, 9.80955124, -66.58635712, 37.88349915, 47.33057404, -4.78638458, 122.52721405, 0.42526937, -0.22634882, -0.33326295, -0.81046164, 0.00430277, 0.01043302, -0.00540613, 87.62500763, 1208.47619629, 40.31999969, 0.00000000
1, 1.8900, 189, -0.08727570, -0.74532032, -0.67174745, 0.35871017, -0.33099550, -0.67987716, 10.10206985, -67.72981262, 37.80736542, 47.33474731, -4.78362942, 122.52014160, 0.42532003, -0.22636577, -0.33328944, -0.81041944, 0.00386366, 0.01257567, -0.00362486, 87.62500763, 1208.47619629, 40.31999969, 0.00000000
1, 1.9000, 190, -0.08753281, -0.74622566, -0.67258745, 0.21520373, -0.24549748, -0.73037541, 9.88268185, -67.90572357, 37.54092026, 47.37631989, -4.80091047, 122.57421875, 0.42479956, -0.22648239, -0.33362177, -0.81052309, 0.00409053, 0.01332940, -0.00261642, 87.62500763, 1208.47619629, 40.31999969, 0.00000000
1, 1.9100, 191, -0.08640987, -0.74678862, -0.67257923, -0.03740073, -0.07593936, -0.72603774, 9.59016514, -67.42195129, 36.74157333, 47.37639618, -4.79608011, 122.56873322, 0.42485389, -0.22646521, -0.33363062, -0.81049573, 0.00276683, 0.01354554, -0.00222330, 87.62500763, 1208.47619629, 40.31999969, 0.00000000
1, 1.9200, 192, -0.08569011, -0.74701405, -0.67309606, -0.60850084, -0.45866197, -0.67960167, 9.59016514, -67.42195129, 36.74157333, 47.37098312, -4.79418421, 122.56072235, 0.42492735, -0.22645530, -0.33358404, -0.81047922, 0.00210606, 0.01380391, -0.00174966, 87.62500763, 1208.47619629, 40.31999969, 0.00000000
1, 1.9300, 193, -0.08533044, -0.74504834, -0.67172426, -1.20057130, -0.48103046, -0.64310354, 9.69985962, -65.83870697, 36.81770325, 47.35964584, -4.79271317, 122.55280304, 0.42501050, -0.22642609, -0.33349401, -0.81048077, 0.00177358, 0.01194510, -0.00324096, 87.62500763, 1208.47619629, 40.31999969, 0.00000000
1, 1.9400, 194, -0.08499309, -0.74555117, -0.67043185, -1.52116823, -0.77573305, -0.61316174, 10.02893925, -66.27849579, 36.93189621, 47.34525681, -4.79345942, 122.54290771, 0.42510650, -0.22640671, -0.33336976, -0.81048697, 0.00143334, 0.01260661, -0.00470527, 87.62500763, 1208.47619629, 40.31999969, 0.00000000
1, 1.9500, 195, -0.08515262, -0.74184924, -0.66945326, -1.68945515, -0.36905780, -0.37557900, 9.69985962, -67.90572357, 37.19834518, 47.34123611, -4.79865503, 122.59759521, 0.42471081, -0.22626868, -0.33342871, -0.81070870, 0.00156582, 0.00905579, -0.00584447, 87.62500763, 1208.47619629, 40.31999969, 0.00000000
1, 1.9600, 196, -0.08668663, -0.73631358, -0.67401481, -1.19189751, -0.11040598, -0.21345885, 9.77298546, -66.10257721, 37.14124680, 47.32950211, -4.79783487, 122.59532928, 0.42475265, -0.22622612, -0.33334449, -0.81073326, 0.00303717, 0.00357696, -0.00133681, 87.62500763, 1208.47619629, 40.31999969, 0.00000000
1, 1.9700, 197, -0.08748599, -0.73231518, -0.67113340, -0.67502350, 0.18469791, -0.17367961, 9.77298546, -66.10257721, 37.14124680, 47.32274246, -4.79530382, 122.59552002, 0.42477289, -0.22618297, -0.33330706, -0.81075019, 0.00387479, -0.00032078, -0.00433229, 87.62500763, 1208.47619629, 40.31999969, 0.00000000
1, 1.9800, 198, -0.08821571, -0.72937310, -0.67084336, -0.22801690, 0.22137441, -0.10396308, 9.80955124, -66.27849579, 37.48382568, 47.32038498, -4.79303885, 122.59644318, 0.42477822, -0.22615582, -0.33330119, -0.81075722, 0.00464446, -0.00321548, -0.00467849, 87.62500763, 1208.47619629, 40.31999969, 0.00000000
1, 1.9900, 199, -0.08935250, -0.73148239, -0.67154783, -0.05149249, 0.34084487, 0.02105670, 9.22451973, -65.92666626, 37.31253433, 47.31965637, -4.79088354, 122.59909821, 0.42476782, -0.22613041, -0.33330977, -0.81076622, 0.00581996, -0.00110477, -0.00398035, 87.62500763, 1208.47619629, 40.31999969, 0.00000000
1, 2.0000, 200, -0.08916190, -0.73596829, -0.67108560, -0.19073097, 0.11931225, -0.14137955, 9.77298546, -66.41043091, 37.02705383, 47.37636948, -4.84807301, 122.66268921, 0.42402107, -0.22655201, -0.33361009, -0.81091595, 0.00540761, 0.00324601, -0.00426832, 87.62500763, 1208.47619629, 40.31999969, 0.00000000
1, 2.0100, 201, -0.08836734, -0.74179620, -0.67001104, 0.01001880, -0.04837552, -0.28614566, 9.48047066, -68.38949585, 37.25543976, 47.37666321, -4.84629059, 122.66037750, 0.42404255, -0.22654746, -0.33361468, -0.81090409, 0.00387048, 0.00860654, -0.00474313, 87.62500763, 1208.47619629, 40.31999969, 0.00000000
1, 2.0200, 202, -0.08925375, -0.74505788, -0.66890568, 0.01014259, -0.16959113, -0.21838124, 9.48047066, -68.38949585, 37.25543976, 47.37699890, -4.84583092, 122.65764618, 0.42406276, -0.22655348, -0.33361349, -0.81089240, 0.00477630, 0.01186229, -0.00584449, 87.62500763, 1208.47619629, 40.31999969, 0.00000000
1, 2.0300, 203, -0.08743743, -0.74583310, -0.66633761, -0.15106896, -0.13597865, -0.25233793, 8.78574562, -66.58635712, 37.35059738, 47.37571335, -4.84489584, 122.65493011, 0.42408755, -0.22655016, -0.33360270, -0.81088471, 0.00297078, 0.01265003, -0.00842750, 87.62500763, 1208.47619629, 40.31999969, 0.00000000
1, 2.0400, 204, -0.08587853, -0.74386871, -0.66769111, 0.35018474, -0.20236984, -0.14979763, 10.35801888, -67.64184570, 36.81770325, 47.37942886, -4.84516335, 122.65239716, 0.42409715, -0.22657309, -0.33362296, -0.81086498, 0.00142074, 0.01066145, -0.00704890, 87.62500763, 1208.47619629, 40.31999969, 0.00000000
1, 2.0500, 205, -0.08523129, -0.74002516, -0.66722566, 0.65456909, -0.09648844, -0.18365961, 9.37077904, -66.85022736, 37.00802231, 47.42235947, -4.84582758, 122.71023560, 0.42360091, -0.22656803, -0.33403847, -0.81095475, 0.00076786, 0.00664432, -0.00732483, 87.62500763, 1208.47619629, 40.31999969, 0.00000000
1, 2.0600, 206, -0.08459496, -0.73963296, -0.66635442, 0.84708500, 0.02083024, 0.08189248, 9.48047066, -65.97064209, 37.02705383, 47.43077087, -4.84629011, 122.71093750, 0.42357782, -0.22660026, -0.33409753, -0.81093347, 0.00011152, 0.00584470, -0.00775045, 87.62500763, 1208.47619629, 40.31999969, 0.00000000
1, 2.0700, 207, -0.08391207, -0.74059182, -0.66481537, 0.97156596, 0.05526093, 0.13497037, 9.48047066, -65.97064209, 37.02705383, 47.44037247, -4.84690905, 122.71225739, 0.42354745, -0.22663619, -0.33416566, -0.81091124, -0.00057573, 0.00669189, -0.00916736, 87.62500763, 1208.47619629, 40.31999969, 0.00000000
1, 2.0800, 208, -0.08423381, -0.74175441, -0.66485798, 0.86024773, 0.27539700, 0.26298720, 9.22451973, -65.79473114, 37.29350281, 47.44865417, -4.84698486, 122.71608734, 0.42350376, -0.22665617, -0.33423153, -0.81090128, -0.00026009, 0.00775228, -0.00901268, 87.62500763, 1208.47619629, 40.31999969, 0.00000000
1, 2.0900, 209, -0.08569553, -0.74305016, -0.66525251, 0.86002135, 0.32714185, 0.24649745, 9.73642254, -65.79473114, 36.83673477, 47.45690536, -4.84659052, 122.72016907, 0.42345977, -0.22667199, -0.33429956, -0.81089181, 0.00120358, 0.00895251, -0.00851442, 87.62500763, 1208.47619629, 40.31999969, 0.00000000
1, 2.1000, 210, -0.08824150, -0.74326569, -0.66752791, 0.66495669, 0.32817328, 0.08891125, 9.62673092, -67.33399963, 37.14124680, 47.48847198, -4.85616541, 122.78417969, 0.42291334, -0.22666819, -0.33461174, -0.81104934, 0.00372190, 0.00901230, -0.00606568, 87.62500763, 1208.47619629, 40.31999969, 0.00000000
1, 2.1100, 211, -0.08853885, -0.74564248, -0.67182505, 0.46893799, 0.38008991, -0.03244564, 9.37077904, -65.92666626, 37.59801865, 47.49294281, -4.85335970, 122.78677368, 0.42289519, -0.22665761, -0.33465955, -0.81104189, 0.00391011, 0.01111045, -0.00145099, 87.62500763, 1208.47619629, 40.31999969, 0.00000000
1, 2.1200, 212, -0.08931592, -0.74698359, -0.67258155, 0.38129526, 0.10436903, -0.00281754, 9.37077904, -66.36645508, 36.89383316, 47.49668884, -4.85263491, 122.78751373, 0.42288485, -0.22666423, -0.33469042, -0.81103271, 0.00471576, 0.01240666, -0.00064915, 87.62500763, 1208.47619629, 40.31999969, 0.00000000
1, 2.1300, 213, -0.08997676, -0.74821150, -0.67265916, 0.25586063, 0.12082354, -0.01966608, 9.37077904, -66.36645508, 36.89383316, 47.49917984, -4.85167313, 122.78827667, 0.42287764, -0.22666454, -0.33471337, -0.81102687, 0.00539772, 0.01359504, -0.00053102, 87.62500763, 1208.47619629, 40.31999969, 0.00000000
1, 2.1400, 214, -0.08910070, -0.74613070, -0.67035782, 0.27370584, 0.10352491, -0.00250605, 9.51703644, -65.83870697, 37.19834518, 47.50185394, -4.85095501, 122.78903198, 0.42286944, -0.22666727, -0.33473665, -0.81102091, 0.00452842, 0.01148376, -0.00280005, 87.62500763, 1208.47619629, 40.31999969, 0.00000000
1, 2.1500, 215, -0.09072153, -0.74535578, -0.66680086, 0.43413630, 0.15567629, 0.03325609, 8.96856880, -68.03766632, 37.10318375, 47.58840942, -4.89396000, 122.84988403, 0.42212757, -0.22710666, -0.33529988, -0.81105173, 0.00597769, 0.01043518, -0.00603621, 87.62500763, 1208.47619629, 40.31999969, 0.00000000
1, 2.1600, 216, -0.08974576, -0.74477202, -0.66617060, 0.16323894, 0.20330501, 0.14055619, 9.88268185, -67.15808105, 37.46479034, 47.58982849, -4.89362669, 122.85234833, 0.42210844, -0.22710240, -0.33531612, -0.81105620, 0.00443846, 0.00913018, -0.00580697, 87.62500763, 1208.47619629, 40.31999969, 0.00000000
1, 2.1700, 217, -0.08860312, -0.74419439, -0.66695392, -0.44551823, 0.28629142, 0.02111544, 9.88268185, -66.54237366, 37.42672729, 47.58518219, -4.89184999, 122.85461426, 0.42210743, -0.22706632, -0.33529472, -0.81107569, 0.00331932, 0.00857748, -0.00505383, 87.62500763, 1208.47619629, 40.31999969, 0.00000000
1, 2.1800, 218, -0.08762458, -0.74335432, -0.66712189, -1.34027541, 0.16004737, -0.03153579, 9.88268185, -66.54237366, 37.42672729, 47.57170105, -4.89053011, 122.85558319, 0.42213157, -0.22700469, -0.33520642, -0.81111687, 0.00236334, 0.00785550, -0.00501800, 87.62500763, 1208.47619629, 40.31999969, 0.00000000
1, 2.1900, 219, -0.08693235, -0.74344820, -0.66828418, -1.80314994, 0.00430699, -0.17402023, 9.66329384, -66.98216248, 37.21737671, 47.55376816, -4.88922167, 122.85443878, 0.42217943, -0.22693288, -0.33508235, -0.81116319, 0.00169503, 0.00814205, -0.00406942, 87.62500763, 1208.47619629, 40.31999969, 0.00000000
1, 2.2000, 220, -0.08656623, -0.74134475, -0.66792667, -1.69882059, 0.17467298, -0.04770956, 9.91924763, -67.50991058, 36.89383316, 47.54728699, -4.89215136, 122.91519928, 0.42175260, -0.22675169, -0.33514524, -0.81141001, 0.00133438, 0.00621243, -0.00461774, 87.62500763, 1208.47619629, 40.31999969, 0.00000000
1, 2.2100, 221, -0.08693181, -0.74247414, -0.67015404, -1.22164083, 0.62100500, 0.17115366, 9.59016514, -66.45441437, 37.17930984, 47.53458023, -4.88922262, 122.92095184, 0.42174649, -0.22666776, -0.33507821, -0.81146431, 0.00167990, 0.00742728, -0.00248122, 87.62500763, 1208.47619629, 40.31999969, 0.00000000
1, 2.2200, 222, -0.08684076, -0.74184847, -0.67110240, -0.65470123, 1.13751113, 0.33848253, 9.15139103, -66.27849579, 37.16028214, 47.52712250, -4.88403845, 122.93167114, 0.42170218, -0.22657301, -0.33506703, -0.81151843, 0.00166591, 0.00690600, -0.00165680, 87.62500763, 1208.47619629, 40.31999969, 0.00000000
1, 2.2300, 223, -0.08603962, -0.73929584, -0.67178303, -0.04686522, 1.20947266, 0.42602706, 9.15139103, -66.27849579, 37.16028214, 47.52564621, -4.87901449, 122.94351196, 0.42163759, -0.22649808, -0.33509979, -0.81155944, 0.00095463, 0.00439024, -0.00102775, 87.62500763, 1208.47619629, 40.31999969, 0.00000000
1, 2.2400, 224, -0.08852418, -0.73975760, -0.66990578, 0.38335225, 1.28203344, 0.39107952, 9.51703644, -66.76226807, 37.44575882, 47.52844620, -4.87323904, 122.95564270, 0.42156485, -0.22643283, -0.33516639, -0.81158793, 0.00353651, 0.00482638, -0.00288923, 87.62500763, 1208.47619629, 40.31999969, 0.00000000
1, 2.2500, 225, -0.08767018, -0.73957986, -0.66875684, 0.65473998, 0.99225998, 0.40173528, 9.44390774, -67.59787750, 37.65511322, 47.54086304, -4.87679148, 123.02636719, 0.42102781, -0.22629617, -0.33537999, -0.81181639, 0.00272448, 0.00457178, -0.00395967, 87.62500763, 1208.47619629, 40.31999969, 0.00000000
1, 2.2600, 226, -0.08700352, -0.73959637, -0.66705739, 0.27955070, 0.73086786, 0.46770117, 8.93200493, -68.60939789, 37.48382568, 47.54293442, -4.87530422, 123.03494263, 0.42096782, -0.22626837, -0.33541745, -0.81183976, 0.00201325, 0.00448874, -0.00554457, 87.62500763, 1208.47619629, 40.31999969, 0.00000000
1, 2.2700, 227, -0.08916015, -0.74096507, -0.66930604, -0.36328071, 0.59030026, 0.36124301, 9.07826233, -67.11410522, 37.33156967, 47.53872299, -4.87398434, 123.04176331, 0.42093211, -0.22622380, -0.33540627, -0.81187528, 0.00419180, 0.00587478, -0.00331756, 87.62500763, 1208.47619629, 40.31999969, 0.00000000
1, 2.2800, 228, -0.08830789, -0.74353099, -0.67014587, -0.84592426, 0.50159758, 0.30812001, 9.07826233, -67.11410522, 37.33156967, 47.52976990, -4.87286901, 123.04755402, 0.42091238, -0.22616622, -0.33535871, -0.81192136, 0.00335222, 0.00852545, -0.00257191, 87.62500763, 1208.47619629, 40.31999969, 0.00000000
1, 2.2900, 229, -0.08750696, -0.74528837, -0.67008823, -1.23913133, 0.22262534, 0.39134967, 9.62673092, -66.76226807, 37.23640823, 47.51701736, -4.87425327, 123.05185699, 0.42090255, -0.22611639, -0.33527139, -0.81197637, 0.00255292, 0.01041770, -0.00277719, 87.62500763, 1208.47619629, 40.31999969, 0.00000000
1, 2.3000, 230, -0.08859409, -0.74528074, -0.66963845, -1.32561529, 0.03496074, 0.28219903, 9.22451973, -67.77378845, 37.27447128, 47.51563263, -4.88589239, 123.11463928, 0.42042249, -0.22600842, -0.33533964, -0.81222689, 0.00356484, 0.01053879, -0.00335795, 87.62500763, 1208.47619629, 40.31999969, 0.00000000
1, 2.3100, 231, -0.08822276, -0.74238288, -0.67136747, -1.13128304, 0.27578747, 0.33940247, 10.21176243, -68.74133301, 37.73123932, 47.50394821, -4.88653040, 123.11898041, 0.42041272, -0.22595727, -0.33526286, -0.81227791, 0.00303647, 0.00769182, -0.00166473, 87.62500763, 1208.47619629, 40.31999969, 0.00000000
1, 2.3200, 232, -0.09092215, -0.74073678, -0.66996986, -0.74110991, 0.67253661, 0.39928463, 10.17519665, -67.29001617, 37.52188873, 47.49588013, -4.88492632, 123.12666321, 0.42037937, -0.22589408, -0.33522713, -0.81232744, 0.00575268, 0.00615761, -0.00318672, 87.62500763, 1208.47619629, 40.31999969, 0.00000000
1, 2.3300, 233, -0.09107868, -0.73737437, -0.66871667, -0.27861810, 0.89717466, 0.52564043, 10.17519665, -67.29001617, 37.52188873, 47.49222565, -4.88273954, 123.13686371, 0.42032138, -0.22583564, -0.33522993, -0.81237257, 0.00595037, 0.00285248, -0.00450742, 87.62500763, 1208.47619629, 40.31999969, 0.00000000
1, 2.3400, 234, -0.08973257, -0.73420852, -0.66911006, -0.04715644, 1.05309188, 0.54578841, 10.35801888, -66.93818665, 37.78833771, 47.49077606, -4.87965107, 123.14835358, 0.42025280, -0.22577523, -0.33525443, -0.81241477, 0.00464725, -0.00029431, -0.00414044, 87.62500763, 1208.47619629, 40.31999969, 0.00000000
1, 2.3500, 235, -0.08990666, -0.73248971, -0.67002267, 0.11387754, 1.22731864, 0.46106696, 9.99237347, -67.37797546, 37.27447128, 47.48704147, -4.88585329, 123.22212982, 0.41971686, -0.22558878, -0.33534890, -0.81270456, 0.00484486, -0.00199567, -0.00324978, 87.62500763, 1208.47619629, 40.31999969, 0.00000000
1, 2.3600, 236, -0.08694108, -0.73362136, -0.67092144, 0.06231927, 1.14285195, 0.35397914, 10.10206985, -66.54237366, 37.40769577, 47.48674011, -4.88074064, 123.23299408, 0.41965708, -0.22552036, -0.33538818, -0.81273824, 0.00182453, -0.00082687, -0.00238454, 87.62500763, 1208.47619629, 40.31999969, 0.00000000
1, 2.3700, 237, -0.08604944, -0.73890638, -0.67134959, -0.00633565, 0.88585722, 0.29605129, 9.48047066, -67.20205688, 37.35059738, 47.48595047, -4.87693882, 123.24154663, 0.41961026, -0.22546597, -0.33541435, -0.81276667, 0.00101388, 0.00446174, -0.00197072, 87.62500763, 1208.47619629, 40.31999969, 0.00000000
1, 2.3800, 238, -0.08437503, -0.74113983, -0.67122424, -0.07573435, 0.57597154, 0.32490528, 9.62673092, -69.18112183, 37.02705383, 47.48463821, -4.87544155, 123.24801636, 0.41957176, -0.22543181, -0.33542365, -0.81279206, -0.00062549, 0.00670584, -0.00211191, 87.62500763, 1208.47619629, 40.31999969, 0.00000000
1, 2.3900, 239, -0.08244646, -0.74172014, -0.67129964, 0.32176158, 0.35722688, 0.24877702, 9.62673092, -69.18112183, 37.02705383, 47.48748398, -4.87485647, 123.25234985, 0.41953740, -0.22542551, -0.33545464, -0.81279880, -0.00253957, 0.00727187, -0.00202282, 87.62500763, 1208.47619629, 40.31999969, 0.00000000
1, 2.4000, 240, -0.08316658, -0.74224871, -0.66934210, 0.12467057, 0.33852655, 0.24898688, 9.95580864, -67.24604034, 37.06512070, 47.51551437, -4.87097359, 123.31480408, 0.41905186, -0.22531816, -0.33579153, -0.81293988, -0.00179761, 0.00769743, -0.00387071, 87.62500763, 1208.47619629, 40.31999969, 0.00000000
1, 2.4100, 241, -0.08367085, -0.74117482, -0.67026299, 0.12139420, 0.45601696, 0.40967166, 9.48047066, -66.27849579, 36.85576630, 47.51620483, -4.87091351, 123.32095337, 0.41900703, -0.22530223, -0.33580875, -0.81296027, -0.00123951, 0.00637190, -0.00268197, 87.62500763, 1208.47619629, 40.31999969, 0.00000000
1, 2.4200, 242, -0.08331594, -0.73975652, -0.67095661, 0.10446508, 0.56108534, 0.27130601, 9.88268185, -66.27849579, 36.95092773, 47.51673889, -4.86912251, 123.32695007, 0.41896939, -0.22527422, -0.33583137, -0.81297827, -0.00157981, 0.00494482, -0.00198060, 87.62500763, 1208.47619629, 40.31999969, 0.00000000
1, 2.4300, 243, -0.08284592, -0.74024075, -0.67073959, -0.14501925, 0.63030577, 0.11531994, 10.39458466, -67.42195129, 37.54092026, 47.51483154, -4.86571503, 123.33238220, 0.41894561, -0.22522759, -0.33584186, -0.81299907, -0.00199805, 0.00543524, -0.00221097, 87.62500763, 1208.47619629, 40.31999969, 0.00000000
1, 2.4400, 244, -0.08359083, -0.74223822, -0.67042357, -0.21203016, 0.46194050, -0.11653271, 10.39458466, -67.42195129, 37.54092026, 47.51248550, -4.86173582, 123.33502197, 0.41894448, -0.22518364, -0.33584601, -0.81301010, -0.00118981, 0.00745773, -0.00256228, 87.62500763, 1208.47619629, 40.31999969, 0.00000000
1, 2.4500, 245, -0.08419473, -0.74422777, -0.66850603, -0.39134595, 0.46053365, -0.11601358, 10.43115044, -67.33399963, 37.86446381, 47.52749634, -4.85766602, 123.39593506, 0.41849601, -0.22503157, -0.33608809, -0.81318313, -0.00051835, 0.00942272, -0.00446148, 87.62500763, 1208.47619629, 40.31999969, 0.00000000
1, 2.4600, 246, -0.08355904, -0.74119556, -0.66881579, -0.48017389, 0.53016055, -0.21974783, 10.43115044, -67.55389404, 37.40769577, 47.52249146, -4.85246658, 123.39837646, 0.41850543, -0.22496997, -0.33607772, -0.81319964, -0.00106836, 0.00627603, -0.00403751, 87.62500763, 1208.47619629, 40.31999969, 0.00000000
1, 2.4700, 247, -0.08389741, -0.73975307, -0.67173213, -0.30120322, 0.46181017, -0.15141921, 9.95580864, -66.67430878, 37.02705383, 47.51927948, -4.84823179, 123.40077209, 0.41850853, -0.22492176, -0.33607620, -0.81321198, -0.00064308, 0.00487834, -0.00118105, 87.62500763, 1208.47619629, 40.31999969, 0.00000000
1, 2.4800, 248, -0.08367920, -0.74053144, -0.67047387, 0.00382729, 0.30839407, -0.06768636, 9.99237347, -66.54237366, 37.63607788, 47.51916504, -4.84564972, 123.40258789, 0.41850418, -0.22489804, -0.33608910, -0.81321543, -0.00080222, 0.00566806, -0.00245911, 87.62500763, 1208.47619629, 40.31999969, 0.00000000
1, 2.4900, 249, -0.08522517, -0.74250287, -0.67062789, -0.05117985, 0.30653927, 0.02033448, 9.99237347, -66.54237366, 37.63607788, 47.51844788, -4.84372711, 123.40499115, 0.41849476, -0.22487499, -0.33609626, -0.81322366, 0.00077819, 0.00763799, -0.00230776, 87.62500763, 1208.47619629, 40.31999969, 0.00000000
1, 2.5000, 250, -0.08548930, -0.74640799, -0.66872036, -0.19489126, 0.25309587, 0.07238559, 10.06550503, -68.74133301, 37.19834518, 47.58032990, -4.84535599, 123.46165466, 0.41796598, -0.22494589, -0.33664021, -0.81325102, 0.00105315, 0.01137471, -0.00403246, 87.62500763, 1208.47619629, 40.31999969, 0.00000000
1, 2.5100, 251, -0.08798660, -0.74633372, -0.66997790, -0.30244306, 0.11359679, 0.15767342, 9.73642254, -66.85022736, 37.78833771, 47.57714462, -4.84575129, 123.46355438, 0.41795743, -0.22493142, -0.33661982, -0.81326795, 0.00351119, 0.01076670, -0.00218664, 87.62500763, 1208.47619629, 40.31999969, 0.00000000
1, 2.5200, 252, -0.08797276, -0.74586332, -0.66883594, -0.64349318, 0.28388423, 0.07440548, 9.99237347, -67.07012177, 37.69317627, 47.57048416, -4.84438562, 123.46616364, 0.41795635, -0.22488995, -0.33658302, -0.81329501, 0.00351030, 0.01035979, -0.00339961, 87.62500763, 1208.47619629, 40.31999969, 0.00000000
1, 2.5300, 253, -0.08603797, -0.74504608, -0.66859353, -0.83968419, 0.30092219, -0.01252752, 9.33421421, -67.94970703, 37.82640076, 47.56190872, -4.84226036, 123.46830750, 0.41796494, -0.22483763, -0.33653471, -0.81332523, 0.00161048, 0.00963452, -0.00374703, 87.62500763, 1208.47619629, 40.31999969, 0.00000000
1, 2.5400, 254, -0.08310359, -0.74212015, -0.66970974, -1.16274858, 0.38472685, -0.04493371, 9.33421421, -67.94970703, 37.82640076, 47.55007172, -4.83933306, 123.47084808, 0.41797972, -0.22476661, -0.33646706, -0.81336522, -0.00127572, 0.00682592, -0.00276521, 87.62500763, 1208.47619629, 40.31999969, 0.00000000
1, 2.5500, 255, -0.07879643, -0.74034548, -0.66998839, -1.37388575, 0.12775284, -0.17273842, 9.18795681, -66.05860138, 37.50285721, 47.53988266, -4.82826138, 123.53067780, 0.41761091, -0.22447668, -0.33655527, -0.81359816, -0.00549898, 0.00519827, -0.00265771, 87.62500763, 1208.47619629, 40.31999969, 0.00000000
1, 2.5600, 256, -0.07842678, -0.73826683, -0.67000020, -1.35286677, -0.07650698, -0.26498860, 8.93200493, -65.61880493, 37.06512070, 47.52655029, -4.82682514, 123.52832794, 0.41765845, -0.22442502, -0.33646160, -0.81362677, -0.00572411, 0.00323619, -0.00279140, 87.62500763, 1208.47619629, 40.31999969, 0.00000000
1, 2.5700, 257, -0.07742194, -0.73813045, -0.67195749, -1.04790628, -0.19533092, -0.19810660, 10.02893925, -67.77378845, 37.65511322, 47.51630020, -4.82668257, 123.52554321, 0.41769877, -0.22439487, -0.33638394, -0.81364650, -0.00671946, 0.00323614, -0.00098419, 87.62500763, 1208.47619629, 40.31999969, 0.00000000
1, 2.5800, 258, -0.07778376, -0.73836905, -0.67264003, -0.81143349, -0.29355308, -0.37667823, 9.99237347, -67.37797546, 37.00802231, 47.50858688, -4.82588863, 123.52082062, 0.41774991, -0.22437505, -0.33632302, -0.81365079, -0.00635062, 0.00357039, -0.00040700, 87.62500763, 1208.47619629, 40.31999969, 0.00000000
1, 2.5900, 259, -0.08052350, -0.73863399, -0.67387182, -0.55877995, -0.30701697, -0.48320425, 9.99237347, -67.37797546, 37.00802231, 47.50347137, -4.82440138, 123.51527405, 0.41780415, -0.22436231, -0.33628163, -0.81364357, -0.00359043, 0.00390889, 0.00074191, 87.62500763, 1208.47619629, 40.31999969, 0.00000000
1, 2.6000, 260, -0.08292420, -0.73983806, -0.67319900, -0.37714171, -0.37221539, -0.60817879, 10.35801888, -68.87326813, 37.61705017, 47.50305939, -4.82240057, 123.56700134, 0.41744420, -0.22419512, -0.33638781, -0.81383055, -0.00115884, 0.00514840, 0.00002657, 87.62500763, 1208.47619629, 40.31999969, 0.00000000
1, 2.6100, 261, -0.08394652, -0.73931694, -0.67040646, -0.37589669, -0.26671976, -0.76416951, 9.66329384, -68.16960144, 37.50285721, 47.49990845, -4.81856966, 123.55982971, 0.41751367, -0.22417796, -0.33636633, -0.81380850, -0.00007834, 0.00463593, -0.00278270, 87.62500763, 1208.47619629, 40.31999969, 0.00000000
1, 2.6200, 262, -0.08661732, -0.74242866, -0.67082721, -0.44771424, -0.04200410, -0.89985198, 9.66329384, -66.93818665, 37.31253433, 47.49595642, -4.81222153, 123.55343628, 0.41758758, -0.22413820, -0.33635056, -0.81378812, 0.00267974, 0.00778054, -0.00240874, 87.62500763, 1208.47619629, 40.31999969, 0.00000000
1, 2.6300, 263, -0.08657556, -0.74316114, -0.67073965, -0.39639845, 0.04217597, -0.77519095, 9.22451973, -66.76226807, 37.23640823, 47.49240494, -4.80622053, 123.54847717, 0.41764915, -0.22409798, -0.33633909, -0.81377232, 0.00274897, 0.00855075, -0.00255130, 87.62500763, 1208.47619629, 40.31999969, 0.00000000
1, 2.6400, 264, -0.08734135, -0.74309021, -0.66816300, -0.48515621, 0.07721084, -0.86207432, 9.69985962, -66.54237366, 37.82640076, 47.48798752, -4.79934740, 123.54320526, 0.41771761, -0.22404952, -0.33632427, -0.81375670, 0.00363437, 0.00852218, -0.00518917, 87.62500763, 1208.47619629, 40.31999969, 0.00000000
1, 2.6500, 265, -0.08722682, -0.74288613, -0.66745263, -0.57684034, 0.05677568, -0.70401871, 9.69985962, -66.54237366, 37.82640076, 47.50350571, -4.80443954, 123.59880066, 0.41727582, -0.22397827, -0.33652321, -0.81392056, 0.00357814, 0.00831118, -0.00589910, 87.62500763, 1208.47619629, 40.31999969, 0.00000000
1, 2.6600, 266, -0.08592949, -0.74510932, -0.67031586, -0.93432426, -0.15273094, -0.65459454, 9.48047066, -67.02614594, 37.80736542, 47.49462891, -4.80065203, 123.59324646, 0.41734502, -0.22393589, -0.33646405, -0.81392121, 0.00221735, 0.01043928, -0.00292419, 87.62500763, 1208.47619629, 40.31999969, 0.00000000
1, 2.6700, 267, -0.08451806, -0.74426830, -0.67407894, -1.45331073, -0.48500586, -0.51936567, 9.40734291, -67.72981262, 37.71220779, 47.48068237, -4.80010414, 123.58612823, 0.41742465, -0.22390221, -0.33635330, -0.81393558, 0.00084020, 0.00973836, 0.00068183, 87.62500763, 1208.47619629, 40.31999969, 0.00000000
1, 2.6800, 268, -0.08445365, -0.74394876, -0.67496824, -1.64975560, -0.76300371, -0.40156102, 10.32145405, -68.43347931, 37.73123932, 47.46488953, -4.80230427, 123.57775116, 0.41750771, -0.22388451, -0.33621612, -0.81395435, 0.00075431, 0.00959972, 0.00137645, 87.62500763, 1208.47619629, 40.31999969, 0.00000000
1, 2.6900, 269, -0.08203851, -0.74340802, -0.67610717, -1.36243033, -0.96830535, -0.30128661, 9.66329384, -67.81777191, 37.57898331, 47.45202637, -4.80663395, 123.56855774, 0.41758418, -0.22389482, -0.33608994, -0.81396449, -0.00172095, 0.00923394, 0.00233215, 87.62500763, 1208.47619629, 40.31999969, 0.00000000
1, 2.7000, 270, -0.08106115, -0.73964155, -0.67428493, -1.32863116, -0.84910077, -0.22857064, 9.66329384, -67.81777191, 37.57898331, 47.43957138, -4.80733061, 123.61977386, 0.41724238, -0.22370405, -0.33609873, -0.81418860, -0.00276244, 0.00561967, 0.00035207, 87.62500763, 1208.47619629, 40.31999969, 0.00000000
1, 2.7100, 271, -0.07970988, -0.73819214, -0.67210597, -1.06305790, -0.60828441, -0.13642885, 9.18795681, -65.88268280, 37.25543976, 47.42939758, -4.81043530, 123.61434937, 0.41729063, -0.22370452, -0.33600372, -0.81420285, -0.00413090, 0.00429751, -0.00196333, 87.62500763, 1208.47619629, 40.31999969, 0.00000000
1, 2.7200, 272, -0.08169889, -0.73644376, -0.67073059, -0.97493494, -0.08927259, -0.35430491, 9.29764843, -66.71829224, 37.00802231, 47.41990280, -4.80842495, 123.61128998, 0.41733751, -0.22366497, -0.33593813, -0.81421673, -0.00214630, 0.00266063, -0.00345950, 87.62500763, 1208.47619629, 40.31999969, 0.00000000
1, 2.7300, 273, -0.08119198, -0.73521668, -0.67074704, -1.08256197, 0.04853822, -0.43896982, 9.99237347, -65.70676422, 37.71220779, 47.40929794, -4.80487347, 123.60866547, 0.41738841, -0.22360928, -0.33587155, -0.81423354, -0.00259658, 0.00155160, -0.00357860, 87.62500763, 1208.47619629, 40.31999969, 0.00000000
1, 2.7400, 274, -0.07999232, -0.73751324, -0.67290413, -1.35179925, 0.23682772, -0.53965724, 9.59016514, -67.64184570, 37.17930984, 47.39593887, -4.79929447, 123.60674286, 0.41744620, -0.22352739, -0.33579466, -0.81425810, -0.00371151, 0.00398766, -0.00158365, 87.62500763, 1208.47619629, 40.31999969, 0.00000000
1, 2.7500, 275, -0.08113903, -0.73747075, -0.67279333, -1.47295022, -0.00171693, -0.70250636, 9.59016514, -67.64184570, 37.17930984, 47.38496399, -4.79449558, 123.66120148, 0.41709617, -0.22329438, -0.33584154, -0.81448209, -0.00247047, 0.00409408, -0.00186825, 87.62500763, 1208.47619629, 40.31999969, 0.00000000
1, 2.7600, 276, -0.08164612, -0.73891789, -0.67234766, -1.36176658, -0.39538661, -0.71112305, 9.44390774, -66.14656067, 37.36963272, 47.37198639, -4.79194164, 123.65345764, 0.41718480, -0.22325204, -0.33574417, -0.81448841, -0.00190702, 0.00566553, -0.00245585, 87.62500763, 1208.47619629, 40.31999969, 0.00000000
1, 2.7700, 277, -0.08248222, -0.73956406, -0.67473060, -1.12884521, -0.48046774, -0.64331120, 9.15139103, -67.20205688, 37.27447128, 47.36135483, -4.79046726, 123.64555359, 0.41726655, -0.22322623, -0.33565894, -0.81448877, -0.00104109, 0.00644970, -0.00022666, 87.62500763, 1208.47619629, 40.31999969, 0.00000000
1, 2.7800, 278, -0.08307149, -0.73948109, -0.67473644, -0.87688166, -0.63344616, -0.61214179, 9.22451973, -66.63032532, 36.87480164, 47.35332870, -4.79025364, 123.63671112, 0.41734567, -0.22322141, -0.33558550, -0.81447977, -0.00043685, 0.00647190, -0.00033675, 87.62500763, 1208.47619629, 40.31999969, 0.00000000
1, 2.7900, 279, -0.08411080, -0.74022585, -0.67487627, -0.60955715, -0.47724742, -0.59209752, 10.02893925, -67.55389404, 37.65511322, 47.34786224, -4.78913164, 123.62915802, 0.41741362, -0.22321579, -0.33553630, -0.81446671, 0.00061649, 0.00729176, -0.00028042, 87.62500763, 1208.47619629, 40.31999969, 0.00000000
1, 2.8000, 280, -0.08596252, -0.73835605, -0.67531383, -0.50198895, -0.28571704, -0.71144819, 10.02893925, -67.55389404, 37.65511322, 47.34536743, -4.79459095, 123.68285370, 0.41701904, -0.22308749, -0.33560190, -0.81467700, 0.00246973, 0.00547020, 0.00010468, 87.62500763, 1208.47619629, 40.31999969, 0.00000000
1, 2.8100, 281, -0.08700090, -0.73950696, -0.67481035, -0.53929108, -0.23568626, -0.63996899, 9.84611702, -67.24604034, 37.44575882, 47.34049225, -4.79148245, 123.67678070, 0.41708189, -0.22306590, -0.33556747, -0.81466490, 0.00344674, 0.00666599, -0.00043990, 87.62500763, 1208.47619629, 40.31999969, 0.00000000
1, 2.8200, 282, -0.08644029, -0.73744696, -0.67540479, -0.71522772, -0.28511283, -0.85140944, 9.62673092, -66.89420319, 37.99768829, 47.33399963, -4.78715467, 123.66888428, 0.41716465, -0.22303519, -0.33552283, -0.81464928, 0.00296237, 0.00466487, 0.00008135, 87.62500763, 1208.47619629, 40.31999969, 0.00000000
1, 2.8300, 283, -0.08669798, -0.73967171, -0.67373133, -0.94545543, -0.63028383, -0.84038347, 9.33421421, -66.45441437, 36.79867172, 47.32541656, -4.78524351, 123.65851593, 0.41726124, -0.22302097, -0.33544907, -0.81463408, 0.00326248, 0.00698270, -0.00169848, 87.62500763, 1208.47619629, 40.31999969, 0.00000000
1, 2.8400, 284, -0.08663590, -0.73878676, -0.67175514, -1.19387865, -0.78519565, -0.93077171, 9.69985962, -67.07012177, 36.58932114, 47.31448364, -4.78372192, 123.64640045, 0.41737366, -0.22300607, -0.33535373, -0.81461984, 0.00323600, 0.00620802, -0.00379866, 87.62500763, 1208.47619629, 40.31999969, 0.00000000
1, 2.8500, 285, -0.08582229, -0.73960513, -0.67129058, -1.21182132, -1.08008540, -0.74355513, 9.69985962, -67.07012177, 36.58932114, 47.31006622, -4.78822708, 123.69254303, 0.41703954, -0.22288631, -0.33539450, -0.81480688, 0.00240214, 0.00714859, -0.00439326, 87.62500763, 1208.47619629, 40.31999969, 0.00000000
1, 2.8600, 286, -0.08551547, -0.73869526, -0.67266530, -1.14401269, -0.94545257, -0.54757071, 9.59016514, -65.70676422, 37.35059738, 47.29951859, -4.79061413, 123.68183136, 0.41712841, -0.22289588, -0.33528939, -0.81480205, 0.00201489, 0.00630610, -0.00308159, 87.62500763, 1208.47619629, 40.31999969, 0.00000000
1, 2.8700, 287, -0.08535352, -0.73632056, -0.67427725, -0.91428632, -0.65288615, -0.48938793, 9.11482811, -66.89420319, 37.42672729, 47.29105377, -4.79144192, 123.67369080, 0.41720012, -0.22289467, -0.33521014, -0.81479830, 0.00182938, 0.00404322, -0.00158797, 87.62500763, 1208.47619629, 40.31999969, 0.00000000
1, 2.8800, 288, -0.08420239, -0.73437732, -0.67858905, -0.72050917, -0.37804043, -0.41388932, 9.84611702, -66.05860138, 37.23640823, 47.28431702, -4.79096508, 123.66809082, 0.41725460, -0.22288321, -0.33515319, -0.81479692, 0.00067186, 0.00219233, 0.00262472, 87.62500763, 1208.47619629, 40.31999969, 0.00000000
1, 2.8900, 289, -0.08527511, -0.73222995, -0.67652386, -0.38149565, -0.08262409, -0.47902915, 9.84611702, -67.29001617, 37.17930984, 47.28082657, -4.78800440, 123.66422272, 0.41729850, -0.22286117, -0.33513239, -0.81478900, 0.00178530, 0.00009155, 0.00050408, 87.62500763, 1208.47619629, 40.31999969, 0.00000000
1, 2.9000, 290, -0.08702190, -0.73137170, -0.67650604, 0.42028835, 0.24323604, -0.21452828, 9.84611702, -67.29001617, 37.00802231, 47.27968216, -4.79218864, 123.72602081, 0.41684768, -0.22270541, -0.33522809, -0.81502301, 0.00355806, -0.00075179, 0.00046684, 87.62500763, 1208.47619629, 40.31999969, 0.00000000
1, 2.9100, 291, -0.08825341, -0.73332417, -0.67364126, 1.13454843, 0.41487747, -0.00573687, 9.55360222, -66.36645508, 37.00802231, 47.29077530, -4.78932858, 123.72904205, 0.41681394, -0.22271697, -0.33532399, -0.81499767, 0.00474654, 0.00113688, -0.00232360, 87.62500763, 1208.47619629, 40.31999969, 0.00000000
1, 2.9200, 292, -0.08980431, -0.73420638, -0.67523372, 1.29830885, 0.26291493, -0.07974600, 8.93200493, -66.27849579, 36.83673477, 47.30363464, -4.78696346, 123.73043823, 0.41678667, -0.22274318, -0.33542740, -0.81496191, 0.00633633, 0.00187244, -0.00057703, 87.62500763, 1208.47619629, 40.31999969, 0.00000000
1, 2.9300, 293, -0.08741470, -0.73695624, -0.67455041, 1.38767576, 0.10723753, 0.03975578, 8.78574562, -67.59787750, 37.35059738, 47.31742859, -4.78653049, 123.73149872, 0.41675368, -0.22278722, -0.33552927, -0.81492484, 0.00397057, 0.00446194, -0.00108954, 87.62500763, 1208.47619629, 40.31999969, 0.00000000
1, 2.9400, 294, -0.08794452, -0.73920435, -0.67358774, 1.42680383, -0.30472076, 0.06613179, 9.91924763, -69.18112183, 37.36963272, 47.33185196, -4.78908443, 123.72969818, 0.41673017, -0.22286274, -0.33561835, -0.81487954, 0.00447401, 0.00654076, -0.00186516, 87.62500763, 1208.47619629, 40.31999969, 0.00000000
1, 2.9500, 295, -0.08871695, -0.74169803, -0.67275256, 1.04890454, -0.18789229, 0.08732257, 9.80955124, -66.80625153, 37.50285721, 47.35348892, -4.80171585, 123.78800201, 0.41623241, -0.22285865, -0.33583647, -0.81504512, 0.00516361, 0.00886536, -0.00250688, 87.62500763, 1208.47619629, 40.31999969, 0.00000000
1, 2.9600, 296, -0.08960447, -0.74320406, -0.67477298, 0.68827921, -0.10637488, 0.17803143, 9.80955124, -66.80625153, 37.50285721, 47.36034012, -4.80374479, 123.78842163, 0.41620949, -0.22289644, -0.33587810, -0.81502932, 0.00587467, 0.01018579, -0.00026296, 87.62500763, 1208.47619629, 40.31999969, 0.00000000
1, 2.9700, 297, -0.08895580, -0.74322802, -0.67458147, 0.54212159, 0.02800248, 0.28677356, 9.77298546, -66.67430878, 37.23640823, 47.36558151, -4.80566311, 123.79058075, 0.41617772, -0.22292252, -0.33591211, -0.81502432, 0.00519484, 0.01015355, -0.00038956, 87.62500763, 1208.47619629, 40.31999969, 0.00000000
1, 2.9800, 298, -0.09007770, -0.74073887, -0.67100674, 0.61256546, 0.06172458, 0.35758021, 9.33421421, -66.93818665, 37.38866425, 47.37146378, -4.80787706, 123.79346466, 0.41613856, -0.22295088, -0.33595094, -0.81502056, 0.00627396, 0.00759095, -0.00387919, 87.62500763, 1208.47619629, 40.31999969, 0.00000000
1, 2.9900, 299, -0.08955915, -0.73986638, -0.67173326, 0.66475993, 0.37232929, 0.27605906, 9.91924763, -66.85022736, 36.81770325, 47.37772369, -4.80738831, 123.79808044, 0.41609517, -0.22295669, -0.33600640, -0.81501842, 0.00574721, 0.00664851, -0.00307570, 87.62500763, 1208.47619629, 40.31999969, 0.00000000
1, 3.0000, 300, -0.08808611, -0.74119067, -0.67144978, 0.48778817, 0.11363085, 0.27116174, 9.33421421, -65.61880493, 37.06512070, 47.42144394, -4.83139372, 123.86015320, 0.41549057, -0.22310063, -0.33634481, -0.81514782, 0.00417181, 0.00779787, -0.00315636, 87.62500763, 1208.47619629, 40.31999969, 0.00000000
1, 3.0100, 301, -0.08828358, -0.74109495, -0.67388195, 0.34568793, 0.04475391, 0.21741362, 9.33421421, -65.61880493, 37.06512070, 47.42474747, -4.83269072, 123.86196899, 0.41546705, -0.22311635, -0.33636677, -0.81514645, 0.00404285, 0.00733905, -0.00028864, 87.62500763, 1208.47619629, 40.31999969, 0.00000000
1, 3.0200, 302, -0.08466619, -0.74026245, -0.67500561, 0.18700914, -0.09201512, 0.10955384, 9.95580864, -66.19053650, 37.12221527, 47.42661667, -4.83411789, 123.86203003, 0.41545832, -0.22313289, -0.33637464, -0.81514311, 0.00040566, 0.00647774, 0.00086901, 87.62500763, 1208.47619629, 40.31999969, 0.00000000
1, 3.0300, 303, -0.08456750, -0.74301690, -0.67422432, -0.20406912, -0.28178486, -0.01628735, 10.02893925, -66.27849579, 37.29350281, 47.42475891, -4.83590221, 123.85982513, 0.41547176, -0.22314507, -0.33635023, -0.81514299, 0.00027609, 0.00923692, 0.00008632, 87.62500763, 1208.47619629, 40.31999969, 0.00000000
1, 3.0400, 304, -0.08169153, -0.74174875, -0.67267615, -0.63810182, -0.15080464, 0.16357753, 9.95580864, -68.74133301, 37.55995178, 47.41838074, -4.83813190, 123.85982513, 0.41547695, -0.22313748, -0.33629617, -0.81516469, -0.00263329, 0.00802618, -0.00152011, 87.62500763, 1208.47619629, 40.31999969, 0.00000000
1, 3.0500, 305, -0.08229452, -0.74323446, -0.67180115, -0.87265116, -0.10232148, 0.23562776, 9.40734291, -66.63032532, 37.46479034, 47.42659378, -4.83514643, 123.91764832, 0.41505933, -0.22297668, -0.33647877, -0.81534612, -0.00204800, 0.00955720, -0.00244218, 87.62500763, 1208.47619629, 40.31999969, 0.00000000
1, 3.0600, 306, -0.08288511, -0.73915827, -0.67177832, -0.94644129, 0.01603903, 0.30865517, 9.40734291, -66.63032532, 37.46479034, 47.41694641, -4.83730745, 123.91986084, 0.41505533, -0.22295032, -0.33640602, -0.81538540, -0.00142423, 0.00543855, -0.00242294, 87.62500763, 1208.47619629, 40.31999969, 0.00000000
1, 3.0700, 307, -0.08463553, -0.73840100, -0.67114592, -0.87367493, -0.01684415, 0.25500628, 9.69985962, -67.90572357, 37.23640823, 47.40807724, -4.83929777, 123.92146301, 0.41505468, -0.22292738, -0.33633831, -0.81541997, 0.00029032, 0.00479172, -0.00317106, 87.62500763, 1208.47619629, 40.31999969, 0.00000000
1, 3.0800, 308, -0.08536479, -0.73552090, -0.67079479, -0.94739509, 0.06692422, 0.34488443, 9.07826233, -66.45441437, 37.21737671, 47.39836121, -4.84138489, 123.92430115, 0.41504657, -0.22289841, -0.33626661, -0.81546158, 0.00097953, 0.00202543, -0.00364099, 87.62500763, 1208.47619629, 40.31999969, 0.00000000
1, 3.0900, 309, -0.08909109, -0.73371732, -0.67266864, -0.80800527, 0.51402187, 0.35385761, 9.88268185, -67.42195129, 37.16028214, 47.38975906, -4.84050846, 123.93050385, 0.41502202, -0.22284295, -0.33622086, -0.81550807, 0.00470085, 0.00033334, -0.00188763, 87.62500763, 1208.47619629, 40.31999969, 0.00000000
1, 3.1000, 310, -0.09021302, -0.73220599, -0.67091626, -0.52427387, 0.70323390, 0.46243721, 9.88268185, -67.15808105, 37.17930984, 47.38167191, -4.85591793, 123.99979401, 0.41449445, -0.22271794, -0.33623821, -0.81580329, 0.00576703, -0.00108925, -0.00372961, 87.62500763, 1208.47619629, 40.31999969, 0.00000000
1, 3.1100, 311, -0.09051640, -0.73355359, -0.67277533, -0.48675081, 0.84417611, 0.25434592, 9.88268185, -67.15808105, 37.17930984, 47.37613678, -4.85207415, 124.00775146, 0.41446108, -0.22264771, -0.33622912, -0.81584316, 0.00590462, 0.00035079, -0.00195020, 87.62500763, 1208.47619629, 40.31999969, 0.00000000
1, 3.1200, 312, -0.09102654, -0.73472899, -0.67611235, -0.55870324, 0.89535815, 0.23806383, 9.15139103, -65.57482910, 37.08415222, 47.36984634, -4.84776211, 124.01597595, 0.41442871, -0.22257073, -0.33621708, -0.81588560, 0.00649633, 0.00159645, 0.00130019, 87.62500763, 1208.47619629, 40.31999969, 0.00000000
1, 3.1300, 313, -0.08920308, -0.73580950, -0.67745394, -0.21363349, 0.66047144, 0.07386498, 9.55360222, -67.55389404, 37.50285721, 47.36725616, -4.84382820, 124.02134705, 0.41440836, -0.22251816, -0.33622429, -0.81590736, 0.00473781, 0.00272147, 0.00258538, 87.62500763, 1208.47619629, 40.31999969, 0.00000000
1, 3.1400, 314, -0.08972219, -0.73643190, -0.67712563, 0.32473373, 0.45713940, 0.17341265, 9.55360222, -66.85022736, 37.44575882, 47.37011719, -4.84200668, 124.02589417, 0.41437626, -0.22250241, -0.33626056, -0.81591284, 0.00530772, 0.00333208, 0.00226350, 87.62500763, 1208.47619629, 40.31999969, 0.00000000
1, 3.1500, 315, -0.08990515, -0.73812443, -0.67430907, 0.78783953, 0.31841716, 0.48548868, 9.37077904, -66.76226807, 36.93189621, 47.37900543, -4.85546970, 124.09257507, 0.41384041, -0.22243284, -0.33640113, -0.81614584, 0.00542940, 0.00495389, -0.00046854, 87.62500763, 1208.47619629, 40.31999969, 0.00000000
1, 3.1600, 316, -0.08816777, -0.73903179, -0.67312741, 0.96387911, 0.43731448, 0.64565450, 9.37077904, -66.76226807, 36.93189621, 47.38800049, -4.85726357, 124.10019684, 0.41376284, -0.22245546, -0.33647302, -0.81614935, 0.00350866, 0.00575781, -0.00151472, 87.62500763, 1208.47619629, 40.31999969, 0.00000000
1, 3.1700, 317, -0.08830144, -0.73905230, -0.67192906, 0.96245629, 0.53965801, 0.68296713, 9.48047066, -66.19053650, 36.95092773, 47.39689636, -4.85864019, 124.10881805, 0.41367969, -0.22247188, -0.33654782, -0.81615633, 0.00361294, 0.00567500, -0.00259717, 87.62500763, 1208.47619629, 40.31999969, 0.00000000
1, 3.1800, 318, -0.08677684, -0.73932791, -0.67237592, 0.88852632, 0.72720265, 0.72229284, 9.07826233, -66.45441437, 37.02705383, 47.40490341, -4.85903072, 124.11908722, 0.41358972, -0.22247335, -0.33662331, -0.81617039, 0.00207327, 0.00584921, -0.00203808, 87.62500763, 1208.47619629, 40.31999969, 0.00000000
1, 3.1900, 319, -0.08400108, -0.73999453, -0.67001194, 0.33497021, 0.65623617, 0.59944654, 9.48047066, -66.85022736, 37.31253433, 47.40749741, -4.85899830, 124.12800598, 0.41352126, -0.22245629, -0.33665919, -0.81619489, -0.00070652, 0.00646031, -0.00434117, 87.62500763, 1208.47619629, 40.31999969, 0.00000000
1, 3.2000, 320, -0.08374704, -0.74101931, -0.67250878, -0.22179757, 0.91088575, 0.50103396, 9.62673092, -67.64184570, 37.14124680, 47.41042328, -4.85740757, 124.19723511, 0.41302758, -0.22225228, -0.33682048, -0.81643373, -0.00093924, 0.00747597, -0.00183713, 87.62500763, 1208.47619629, 40.31999969, 0.00000000
1, 3.2100, 321, -0.08000309, -0.74014831, -0.67403084, -0.49072221, 1.06486988, 0.39962429, 8.67605400, -67.33399963, 37.36963272, 47.40461731, -4.85314226, 124.20782471, 0.41297731, -0.22217044, -0.33681616, -0.81648326, -0.00462828, 0.00660728, -0.00032449, 87.62500763, 1208.47619629, 40.31999969, 0.00000000
1, 3.2200, 322, -0.08197543, -0.73975438, -0.67574185, -0.57861263, 1.03158009, 0.29372352, 8.67605400, -67.33399963, 37.36963272, 47.39801788, -4.84832144, 124.21744537, 0.41293728, -0.22208472, -0.33680642, -0.81653088, -0.00257516, 0.00628741, 0.00129579, 87.62500763, 1208.47619629, 40.31999969, 0.00000000
1, 3.2300, 323, -0.08176774, -0.73819870, -0.67757452, -0.39938307, 1.01554775, 0.31041637, 9.91924763, -67.68582916, 37.06512070, 47.39321518, -4.84373283, 124.22705841, 0.41289300, -0.22200708, -0.33680853, -0.81657344, -0.00269789, 0.00479504, 0.00304888, 87.62500763, 1208.47619629, 40.31999969, 0.00000000
1, 3.2400, 324, -0.08238632, -0.73704600, -0.67975754, -0.45024642, 0.82787782, 0.21873496, 9.66329384, -66.63032532, 37.04608917, 47.38806915, -4.83974075, 124.23465729, 0.41286182, -0.22193830, -0.33680204, -0.81661069, -0.00200676, 0.00369072, 0.00517036, 87.62500763, 1208.47619629, 40.31999969, 0.00000000
1, 3.2500, 325, -0.08378416, -0.73647559, -0.67656881, -0.46784419, 0.60274523, 0.33710381, 9.40734291, -66.27849579, 36.66544724, 47.38216400, -4.84259367, 124.30252075, 0.41238025, -0.22173752, -0.33688036, -0.81687623, -0.00058535, 0.00318171, 0.00191188, 87.62500763, 1208.47619629, 40.31999969, 0.00000000
1, 3.2600, 326, -0.08460596, -0.73604918, -0.67534399, -0.09361999, 0.62027347, 0.49453199, 9.37077904, -66.98216248, 37.04608917, 47.38056183, -4.84203339, 124.31045532, 0.41232857, -0.22170445, -0.33688641, -0.81690878, 0.00019412, 0.00280143, 0.00064234, 87.62500763, 1208.47619629, 40.31999969, 0.00000000
1, 3.2700, 327, -0.08399891, -0.73640758, -0.67327845, 0.04821609, 0.87955016, 0.44681406, 9.37077904, -66.98216248, 37.04608917, 47.38023376, -4.83936739, 124.31999207, 0.41226989, -0.22165662, -0.33691284, -0.81694043, -0.00037999, 0.00317159, -0.00144023, 87.62500763, 1208.47619629, 40.31999969, 0.00000000
1, 3.2800, 328, -0.08292666, -0.73663163, -0.67157608, 0.22453542, 0.86007911, 0.67438316, 9.66329384, -66.41043091, 37.76930618, 47.38156128, -4.83850193, 124.33093262, 0.41219223, -0.22162321, -0.33694676, -0.81697470, -0.00142542, 0.00337934, -0.00312825, 87.62500763, 1208.47619629, 40.31999969, 0.00000000
1, 3.2900, 329, -0.08566112, -0.73663551, -0.67391360, 0.07991903, 1.01361513, 0.66047531, 9.07826233, -67.29001617, 37.19834518, 47.38135529, -4.83650017, 124.34289551, 0.41211379, -0.22157325, -0.33697617, -0.81701571, 0.00133633, 0.00337787, -0.00078826, 87.62500763, 1208.47619629, 40.31999969, 0.00000000
1, 3.3000, 330, -0.08270814, -0.73735154, -0.67410189, -0.09663761, 0.79008186, 0.60358113, 9.59016514, -66.76226807, 37.29350281, 47.37603760, -4.83451462, 124.41357422, 0.41162646, -0.22133237, -0.33708254, -0.81728274, -0.00159444, 0.00411448, -0.00062516, 87.62500763, 1208.47619629, 40.31999969, 0.00000000
1, 3.3100, 331, -0.08191843, -0.73793739, -0.67489743, -0.16336870, 0.48334819, 0.43913180, 9.77298546, -66.49839020, 37.38866425, 47.37385178, -4.83447123, 124.42013550, 0.41158411, -0.22130495, -0.33707976, -0.81731266, -0.00235694, 0.00476299, 0.00009890, 87.62500763, 1208.47619629, 40.31999969, 0.00000000
1, 3.3200, 332, -0.08169105, -0.73992747, -0.67610919, -0.10571001, 0.43632364, 0.19187045, 9.77298546, -66.49839020, 37.38866425, 47.37241364, -4.83292246, 124.42465973, 0.41155967, -0.22127566, -0.33708420, -0.81733102, -0.00257523, 0.00676967, 0.00129154, 87.62500763, 1208.47619629, 40.31999969, 0.00000000
1, 3.3300, 333, -0.08186449, -0.74238670, -0.67299032, 0.14762199, 0.26762518, 0.13481367, 9.33421421, -65.83870697, 37.23640823, 47.37365341, -4.83209801, 124.42755127, 0.41153938, -0.22126582, -0.33710179, -0.81733674, -0.00238284, 0.00921690, -0.00181675, 87.62500763, 1208.47619629, 40.31999969, 0.00000000
1, 3.3400, 334, -0.07766651, -0.74199861, -0.67241859, -0.13492917, -0.02421710, 0.00649446, 9.48047066, -65.83870697, 36.51319122, 47.37231445, -4.83230591, 124.42741394, 0.41154227, -0.22126289, -0.33709118, -0.81734043, -0.00657089, 0.00883499, -0.00239614, 87.62500763, 1208.47619629, 40.31999969, 0.00000000
1, 3.3500, 335, -0.07687696, -0.74217683, -0.67394972, -0.52227849, -0.43496701, -0.24705213, 9.44390774, -66.80625153, 37.04608917, 47.37834930, -4.81767178, 124.48079681, 0.41119739, -0.22102506, -0.33729360, -0.81749469, -0.00730509, 0.00902019, -0.00087970, 87.62500763, 1208.47619629, 40.31999969, 0.00000000
1, 3.3600, 336, -0.07587159, -0.74106157, -0.67414606, -0.66002452, -0.79343522, -0.42995009, 9.37077904, -66.67430878, 37.12221527, 47.37248993, -4.81987858, 124.47200012, 0.41126427, -0.22104537, -0.33722636, -0.81748348, -0.00813209, 0.00786696, -0.00066426, 87.62500763, 1208.47619629, 40.31999969, 0.00000000
1, 3.3700, 337, -0.07440212, -0.73990816, -0.67439866, -0.78223145, -1.05056536, -0.50529522, 9.37077904, -66.67430878, 37.12221527, 47.36560059, -4.82327986, 124.46081543, 0.41134629, -0.22107735, -0.33714253, -0.81746805, -0.00965432, 0.00678903, -0.00048713, 87.62500763, 1208.47619629, 40.31999969, 0.00000000
1, 3.3800, 338, -0.07373947, -0.73678887, -0.67439985, -0.69330132, -1.05072153, -0.45283568, 9.59016514, -67.24604034, 37.12221527, 47.35958481, -4.82706547, 124.44998169, 0.41142288, -0.22111411, -0.33706412, -0.81745189, -0.01038540, 0.00375003, -0.00056474, 87.62500763, 1208.47619629, 40.31999969, 0.00000000
1, 3.3900, 339, -0.07511169, -0.73497736, -0.67652494, -0.78506058, -0.79384691, -0.46473274, 9.48047066, -65.48686981, 36.93189621, 47.35248947, -4.82902908, 124.44095612, 0.41149452, -0.22112891, -0.33698854, -0.81744301, -0.00905908, 0.00202039, 0.00147720, 87.62500763, 1208.47619629, 40.31999969, 0.00000000
1, 3.4000, 340, -0.07686578, -0.73344237, -0.67690229, -0.53579110, -0.51657337, -0.51240104, 9.33421421, -65.22299194, 36.87480164, 47.34092331, -4.81201506, 124.49473572, 0.41118848, -0.22081017, -0.33707523, -0.81764728, -0.00724551, 0.00057073, 0.00175458, 87.62500763, 1208.47619629, 40.31999969, 0.00000000
1, 3.4100, 341, -0.07547139, -0.73263353, -0.67860430, -0.21587299, -0.06663612, -0.59181213, 9.84611702, -65.97064209, 37.46479034, 47.33914948, -4.80811596, 124.49021149, 0.41123688, -0.22078982, -0.33706889, -0.81763119, -0.00837424, -0.00015846, 0.00333697, 87.62500763, 1208.47619629, 40.31999969, 0.00000000
1, 3.4200, 342, -0.07479447, -0.73380166, -0.68325132, -0.03432112, -0.14927384, -0.69957477, 9.84611702, -65.97064209, 37.46479034, 47.33929443, -4.80398798, 124.48436737, 0.41129181, -0.22077867, -0.33707455, -0.81760424, -0.00898281, 0.00100769, 0.00797772, 87.62500763, 1208.47619629, 40.31999969, 0.00000000
1, 3.4300, 343, -0.07433805, -0.73600650, -0.67824680, 0.07401196, -0.09553862, -0.78666812, 9.18795681, -67.24604034, 37.38866425, 47.34054947, -4.79884958, 124.47831726, 0.41134927, -0.22076499, -0.33709157, -0.81757194, -0.00934946, 0.00319800, 0.00297792, 87.62500763, 1208.47619629, 40.31999969, 0.00000000
1, 3.4400, 344, -0.07667907, -0.73956770, -0.67294425, 0.32843807, -0.38430649, -0.84625256, 9.91924763, -67.50991058, 37.10318375, 47.34454727, -4.79523230, 124.46971893, 0.41141462, -0.22077933, -0.33711752, -0.81752461, -0.00693378, 0.00672355, -0.00229529, 87.62500763, 1208.47619629, 40.31999969, 0.00000000
1, 3.4500, 345, -0.07621621, -0.73977804, -0.66875619, 0.77718008, -0.48427910, -0.81457090, 10.02893925, -66.41043091, 37.25543976, 47.36347961, -4.78653765, 124.51972198, 0.41104972, -0.22063927, -0.33738232, -0.81763661, -0.00731904, 0.00681505, -0.00636384, 87.62500763, 1208.47619629, 40.31999969, 0.00000000
1, 3.4600, 346, -0.07773854, -0.73917937, -0.66553783, 0.97403342, -0.70858312, -0.64410585, 10.02893925, -66.49839020, 37.02705383, 47.37402344, -4.78660059, 124.51011658, 0.41109779, -0.22070582, -0.33743882, -0.81757122, -0.00570403, 0.00599995, -0.00935875, 87.62500763, 1208.47619629, 40.31999969, 0.00000000
1, 3.4700, 347, -0.07941172, -0.73980945, -0.66777599, 1.22355568, -0.91645843, -0.40314338, 9.77298546, -64.95912170, 36.79867172, 47.38705444, -4.78983641, 124.50061035, 0.41112992, -0.22080320, -0.33750099, -0.81750298, -0.00406228, 0.00649954, -0.00697489, 87.62500763, 1208.47619629, 40.31999969, 0.00000000
1, 3.4800, 348, -0.08178544, -0.74180520, -0.66517013, 1.11095977, -0.90588087, -0.05101028, 9.77298546, -64.95912170, 36.79867172, 47.39874649, -4.79559755, 124.49357605, 0.41113889, -0.22090624, -0.33754873, -0.81745112, -0.00177685, 0.00834614, -0.00940776, 87.62500763, 1208.47619629, 40.31999969, 0.00000000
1, 3.4900, 349, -0.08511913, -0.74586630, -0.66594332, 0.64288002, -0.65167403, -0.07939027, 9.40734291, -66.01461792, 37.23640823, 47.40562820, -4.79942656, 124.48822021, 0.41115129, -0.22097345, -0.33757272, -0.81741667, 0.00147293, 0.01230673, -0.00851481, 87.62500763, 1208.47619629, 40.31999969, 0.00000000
1, 3.5000, 350, -0.08272613, -0.74540836, -0.67160600, -0.36151931, -0.36508974, -0.24607493, 9.44390774, -65.13504028, 37.21737671, 47.41398239, -4.79372406, 124.54466248, 0.41075107, -0.22079718, -0.33776304, -0.81758684, -0.00091995, 0.01180245, -0.00280158, 87.62500763, 1208.47619629, 40.31999969, 0.00000000
1, 3.5100, 351, -0.07708477, -0.74827671, -0.68187237, -1.93577361, -0.35573253, -0.52231413, 9.00513363, -65.97064209, 36.95092773, 47.39513779, -4.79228687, 124.53847504, 0.41083625, -0.22073783, -0.33762226, -0.81761837, -0.00646915, 0.01471376, 0.00740664, 87.62500763, 1208.47619629, 40.31999969, 0.00000000
1, 3.5200, 352, -0.06814963, -0.75216419, -0.68817174, -2.79155254, -0.33931509, -0.88849485, 9.59016514, -67.50991058, 37.02705383, 47.36793518, -4.78804350, 124.52992249, 0.41096339, -0.22063574, -0.33742797, -0.81766212, -0.01534184, 0.01888599, 0.01338866, 87.62500763, 1208.47619629, 40.31999969, 0.00000000
1, 3.5300, 353, -0.06196230, -0.75618684, -0.68044090, -2.18324852, -0.31881177, -0.80203360, 9.59016514, -67.50991058, 37.02705383, 47.34675598, -4.78430605, 124.52212524, 0.41107202, -0.22055659, -0.33727622, -0.81769150, -0.02146830, 0.02320500, 0.00532840, 87.62500763, 1208.47619629, 40.31999969, 0.00000000
1, 3.5400, 354, -0.05669605, -0.75774693, -0.66722566, 0.64283741, -0.27030125, -0.31746855, 9.51703644, -67.07012177, 37.02705383, 47.35353851, -4.78380060, 124.51796722, 0.41109025, -0.22058959, -0.33731851, -0.81765598, -0.02669721, 0.02482359, -0.00795509, 87.62500763, 1208.47619629, 40.31999969, 0.00000000
1, 3.5500, 355, -0.05392872, -0.75872862, -0.65237212, 3.87917137, -0.46385169, 0.47716177, 9.59016514, -66.93818665, 36.91286469, 47.40851212, -4.77821636, 124.57314301, 0.41060898, -0.22058509, -0.33783847, -0.81768441, -0.02947756, 0.02543570, -0.02240555, 87.62500763, 1208.47619629, 40.31999969, 0.00000000
1, 3.5600, 356, -0.05288106, -0.76138431, -0.64327228, 5.57664537, -0.59630525, 0.99653238, 9.84611702, -67.07012177, 36.76060867, 47.46407318, -4.78958797, 124.57549286, 0.41044807, -0.22085680, -0.33819580, -0.81754416, -0.03053308, 0.02734908, -0.03069669, 87.62500763, 1208.47619629, 40.31999969, 0.00000000
1, 3.5700, 357, -0.05597077, -0.76916659, -0.64763856, 4.74729300, -0.78146833, 1.43463480, 9.44390774, -66.36645508, 36.39899826, 47.51121902, -4.80544376, 124.57944489, 0.41027728, -0.22112493, -0.33847880, -0.81744027, -0.02769803, 0.03452690, -0.02563988, 87.62500763, 1208.47619629, 40.31999969, 0.00000000
1, 3.5800, 358, -0.05576511, -0.77171934, -0.65980822, 2.31029081, -1.33606279, 1.65894997, 9.44390774, -66.36645508, 36.39899826, 47.53421021, -4.82670546, 124.58079529, 0.41015378, -0.22135195, -0.33856374, -0.81740558, -0.02822288, 0.03672655, -0.01304524, 87.62500763, 1208.47619629, 40.31999969, 0.00000000
1, 3.5900, 359, -0.06109367, -0.77408904, -0.66932929, 1.13280392, -2.32649422, 1.85266995, 9.40734291, -65.17901611, 36.47512817, 47.54592514, -4.85607576, 124.57612610, 0.41006842, -0.22161312, -0.33852544, -0.81739342, -0.02336017, 0.03895819, -0.00331476, 87.62500763, 1208.47619629, 40.31999969, 0.00000000
1, 3.6000, 360, -0.06718726, -0.77294600, -0.66818768, 2.08768582, -3.40596676, 2.21377659, 9.77298546, -67.29001617, 36.62738419, 47.57405090, -4.89137506, 124.62028503, 0.40958351, -0.22183010, -0.33867589, -0.81751531, -0.01786484, 0.03764099, -0.00419077, 87.62500763, 1208.47619629, 40.31999969, 0.00000000
1, 3.6100, 361, -0.07209240, -0.77218163, -0.65325159, 4.04402637, -4.09934044, 2.52720070, 9.48047066, -66.63032532, 36.83673477, 47.61562347, -4.93768167, 124.60702515, 0.40944603, -0.22234178, -0.33876893, -0.81740677, -0.01366787, 0.03646462, -0.01858589, 87.62500763, 1208.47619629, 40.31999969, 0.00000000
1, 3.6200, 362, -0.07121220, -0.77153188, -0.64514518, 6.01738214, -4.88034296, 2.96177959, 10.46771145, -67.81777191, 36.57028580, 47.67720413, -4.99244976, 124.59085083, 0.40926215, -0.22299242, -0.33896622, -0.81723976, -0.01544479, 0.03523748, -0.02594423, 87.62500763, 1208.47619629, 40.31999969, 0.00000000
1, 3.6300, 363, -0.07099814, -0.76861674, -0.62841463, 6.21016693, -5.19614124, 3.48189950, 10.46771145, -67.81777191, 36.57028580, 47.74061966, -5.05316734, 124.57576752, 0.40904668, -0.22368774, -0.33915570, -0.81707907, -0.01669014, 0.03162508, -0.04177484, 87.62500763, 1208.47619629, 40.31999969, 0.00000000
1, 3.6400, 364, -0.07233651, -0.76537240, -0.62262160, 5.05617285, -4.39781904, 3.43190098, 9.18795681, -65.79473114, 36.24674225, 47.79202652, -5.10813665, 124.56623077, 0.40883335, -0.22428331, -0.33929214, -0.81696582, -0.01635041, 0.02779038, -0.04678670, 87.62500763, 1208.47619629, 40.31999969, 0.00000000
1, 3.6500, 365, -0.08369581, -0.76815099, -0.61731952, 3.02574015, -3.25703049, 3.00506139, 9.18795681, -65.39891052, 36.76060867, 47.84418106, -5.15555906, 124.61755371, 0.40820903, -0.22464833, -0.33958215, -0.81705713, -0.00584470, 0.03011711, -0.05147675, 87.62500763, 1208.47619629, 40.31999969, 0.00000000
1, 3.6600, 366, -0.09845506, -0.76793313, -0.62172526, 0.75885707, -2.20870590, 2.87583232, 9.15139103, -65.22299194, 36.79867172, 47.85150528, -5.19170046, 124.62049103, 0.40805456, -0.22491807, -0.33950117, -0.81709379, 0.00819277, 0.02955963, -0.04659899, 87.62500763, 1208.47619629, 40.31999969, 0.00000000
1, 3.6700, 367, -0.10949625, -0.75755692, -0.63090968, -1.12443674, -1.68658435, 2.57616234, 10.28489304, -67.15808105, 36.53222275, 47.83982468, -5.22211790, 124.62528992, 0.40794292, -0.22507462, -0.33931038, -0.81718570, 0.01866898, 0.01928960, -0.03745529, 87.62500763, 1208.47619629, 40.31999969, 0.00000000
1, 3.6800, 368, -0.11289744, -0.75110054, -0.63960797, -2.10489583, -1.30607200, 1.91918659, 10.28489304, -67.15808105, 36.53222275, 47.81848907, -5.24511147, 124.62850952, 0.40788603, -0.22514966, -0.33907610, -0.81729066, 0.02161966, 0.01307468, -0.02896224, 87.62500763, 1208.47619629, 40.31999969, 0.00000000
1, 3.6900, 369, -0.11310618, -0.74997854, -0.65717101, -3.00522280, -0.12125501, 1.43707991, 8.93200493, -67.77378845, 37.00802231, 47.78762817, -5.25657463, 124.63730621, 0.40784618, -0.22509389, -0.33882919, -0.81742835, 0.02154886, 0.01228529, -0.01172812, 87.62500763, 1208.47619629, 40.31999969, 0.00000000
1, 3.7000, 370, -0.10905674, -0.75487840, -0.66571552, -3.97736311, 1.04555976, 0.97239280, 9.51703644, -67.29001617, 36.30384064, 47.75078201, -5.26654387, 124.70907593, 0.40737355, -0.22482026, -0.33866885, -0.81780571, 0.01737957, 0.01762040, -0.00364675, 87.62500763, 1208.47619629, 40.31999969, 0.00000000
1, 3.7100, 371, -0.10144475, -0.76328635, -0.66089278, -4.44663858, 2.13055015, 0.50444669, 9.88268185, -66.85022736, 36.45609283, 47.70455170, -5.25594616, 124.72830963, 0.40736172, -0.22452499, -0.33841729, -0.81799668, 0.00975743, 0.02650796, -0.00899602, 87.62500763, 1208.47619629, 40.31999969, 0.00000000
1, 3.7200, 372, -0.09045690, -0.76288897, -0.65449315, -4.62843800, 2.45561934, 0.47668052, 9.51703644, -65.92666626, 36.34190369, 47.65630722, -5.24293375, 124.74977112, 0.40734580, -0.22419921, -0.33816487, -0.81819838, -0.00100036, 0.02665959, -0.01603033, 87.62500763, 1208.47619629, 40.31999969, 0.00000000
1, 3.7300, 373, -0.07874892, -0.75845486, -0.63836467, -3.37713575, 2.11410189, 0.97544271, 9.48047066, -65.17901611, 36.43706512, 47.62049484, -5.23589659, 124.77205658, 0.40727985, -0.22395697, -0.33797973, -0.81837404, -0.01254006, 0.02270673, -0.03270981, 87.62500763, 1208.47619629, 40.31999969, 0.00000000
1, 3.7400, 374, -0.06924444, -0.74046081, -0.63573194, -0.28196996, 1.21129072, 2.05442500, 9.48047066, -65.17901611, 36.43706512, 47.61558533, -5.24290657, 124.79496002, 0.40710288, -0.22392102, -0.33796251, -0.81847906, -0.02206497, 0.00491716, -0.03556395, 87.62500763, 1208.47619629, 40.31999969, 0.00000000
1, 3.7500, 375, -0.06409150, -0.72647882, -0.63800609, 3.80430722, 0.94241428, 3.67105126, 9.40734291, -67.11410522, 36.49415970, 47.65096283, -5.25869656, 124.88028717, 0.40637225, -0.22390522, -0.33832136, -0.81869811, -0.02747723, -0.00927308, -0.03302617, 87.62500763, 1208.47619629, 40.31999969, 0.00000000
1, 3.7600, 376, -0.06984552, -0.71257001, -0.64587671, 8.66495895, 2.01477861, 5.48928976, 9.95580864, -67.37797546, 36.66544724, 47.73282242, -5.28572845, 124.93235779, 0.40575117, -0.22423054, -0.33890453, -0.81867611, -0.02209851, -0.02390970, -0.02430511, 87.62500763, 1208.47619629, 40.31999969, 0.00000000
1, 3.7700, 377, -0.07983714, -0.70129931, -0.65276641, 13.41657352, 3.62204719, 7.07301092, 9.62673092, -67.33399963, 36.66544724, 47.86009979, -5.31379366, 125.00702667, 0.40487576, -0.22465581, -0.33985257, -0.81859982, -0.01259213, -0.03643788, -0.01596391, 87.62500763, 1208.47619629, 40.31999969, 0.00000000
1, 3.7800, 378, -0.09099313, -0.69703794, -0.65894985, 17.19188118, 4.93857622, 8.12625694, 9.66329384, -67.81777191, 36.70351410, 48.02352524, -5.34104586, 125.09852600, 0.40381113, -0.22515112, -0.34109542, -0.81847274, -0.00190966, -0.04243033, -0.00779976, 87.62500763, 1208.47619629, 40.31999969, 0.00000000
1, 3.7900, 379, -0.10175902, -0.70101672, -0.64841938, 20.54413605, 5.82692194, 8.92570019, 9.66329384, -67.81777191, 36.70351410, 48.21931076, -5.36859751, 125.20194244, 0.40259570, -0.22572406, -0.34259209, -0.81828856, 0.00837501, -0.04054281, -0.01593590, 87.62500763, 1208.47619629, 40.31999969, 0.00000000
1, 3.8000, 380, -0.10637870, -0.71281874, -0.63283169, 24.10811424, 5.98841524, 9.14670753, 9.73642254, -67.33399963, 37.10318375, 48.44746017, -5.40085030, 125.34894562, 0.40098828, -0.22630870, -0.34438840, -0.81816226, 0.01248984, -0.03121211, -0.02868298, 87.62500763, 1208.47619629, 40.31999969, 0.00000000
1, 3.8100, 381, -0.11290695, -0.72410661, -0.62667644, 26.81927109, 5.78839207, 9.02873611, 9.15139103, -66.85022736, 36.96995926, 48.70587540, -5.43025112, 125.45256042, 0.39963871, -0.22710447, -0.34632638, -0.81778389, 0.01846480, -0.02273995, -0.03157838, 87.62500763, 1208.47619629, 40.31999969, 0.00000000
