SensorId, TimeStamp (s), FrameNumber, AccX (g), AccY (g), AccZ (g), GyroX (deg/s), GyroY (deg/s), GyroZ (deg/s), MagX (uT), MagY (uT), MagZ (uT), EulerX (deg), EulerY (deg), EulerZ (deg), QuatW, QuatX, QuatY, QuatZ, LinAccX (g), LinAccY (g), LinAccZ (g), Pressure (kPa), Altitude (m), Temperature (degC), HeaveMotion (m)
1, 0.0000, 0, -0.03285204, -0.93695939, -0.36573473, 0.90485740, 1.22332203, 0.72443378, 13.46600056, -66.71829224, 43.23149109, 0.41576740, 0.07130487, -1.75679982, 0.99987578, -0.00363736, -0.00056655, 0.01533252, 0.03410917, 0.92975748, -0.63423854, 87.59700775, 1211.09814453, 39.34999847, 0.00000000
1, 0.0100, 1, -0.03081914, -0.93493325, -0.36471340, 0.98941761, 1.46072555, 0.94010586, 13.83164692, -66.71829224, 42.96504593, 0.42521659, 0.06776209, -1.73952854, 0.99987769, -0.00371925, -0.00053494, 0.01518175, 0.03202157, 0.92757106, -0.63525879, 87.59700775, 1211.09814453, 39.34999847, 0.00000000
1, 0.0200, 2, -0.03041962, -0.93355155, -0.36694524, 0.86247396, 1.56208432, 0.97778183, 13.35630894, -65.44289398, 43.02214050, 0.43336609, 0.06423135, -1.72121632, 0.99987996, -0.00378981, -0.00050365, 0.01502189, 0.03156345, 0.92603934, -0.63302588, 87.59700775, 1211.09814453, 39.34999847, 0.00000000
1, 0.0300, 3, -0.02897813, -0.93531674, -0.36577293, 0.86145020, 1.64756167, 0.99716026, 13.35630894, -65.44289398, 43.02214050, 0.42796206, 0.05931806, -1.74262238, 0.99987727, -0.00374210, -0.00046079, 0.01520848, 0.03005553, 0.92772794, -0.63419765, 87.59700775, 1211.09814453, 39.34999847, 0.00000000
1, 0.0400, 4, -0.02762518, -0.93588257, -0.36733139, 0.85997903, 1.59381115, 1.13666117, 13.35630894, -65.39891052, 43.21246338, 0.43605465, 0.05441434, -1.72344196, 0.99987954, -0.00381199, -0.00041757, 0.01504099, 0.02861083, 0.92832625, -0.63263953, 87.59700775, 1211.09814453, 39.34999847, 0.00000000
1, 0.0500, 5, -0.02616974, -0.93639255, -0.36648843, 0.89426327, 1.71358860, 1.17423105, 13.50256634, -67.81777191, 43.06019974, 0.44445726, 0.04958342, -1.70299840, 0.99988198, -0.00388461, -0.00037501, 0.01486248, 0.02706642, 0.92868698, -0.63348150, 87.59700775, 1211.09814453, 39.34999847, 0.00000000
1, 0.0600, 6, -0.02484343, -0.93634957, -0.36604288, 0.71805143, 1.55981266, 1.04848921, 14.27041817, -67.42195129, 43.17439651, 0.45115343, 0.04537670, -1.68449008, 0.99988419, -0.00394244, -0.00033807, 0.01470086, 0.02566410, 0.92851269, -0.63392609, 87.59700775, 1211.09814453, 39.34999847, 0.00000000
1, 0.0700, 7, -0.02246648, -0.93597984, -0.36601427, 0.82652456, 1.54436374, 0.99509752, 13.75851536, -66.10257721, 43.13633347, 0.45894095, 0.04161134, -1.66628754, 0.99988621, -0.00400986, -0.00030485, 0.01454192, 0.02321751, 0.92802203, -0.63395381, 87.59700775, 1211.09814453, 39.34999847, 0.00000000
1, 0.0800, 8, -0.02207294, -0.93570793, -0.36548492, 0.90116084, 1.54836512, 0.78401351, 13.75851536, -66.10257721, 43.13633347, 0.45510826, 0.04512420, -1.68959916, 0.99988335, -0.00397693, -0.00033518, 0.01474544, 0.02280031, 0.92765749, -0.63448232, 87.59700775, 1211.09814453, 39.34999847, 0.00000000
1, 0.0900, 9, -0.02237533, -0.93708014, -0.36377507, 0.82973105, 1.46146524, 0.81756175, 13.24661255, -66.36645508, 42.92698288, 0.46296251, 0.04271756, -1.67281222, 0.99988526, -0.00404511, -0.00031376, 0.01459890, 0.02313539, 0.92905813, -0.63619244, 87.59700775, 1211.09814453, 39.34999847, 0.00000000
1, 0.1000, 10, -0.02234315, -0.93710876, -0.36386719, 0.92437905, 1.39871562, 0.49954334, 13.68538952, -66.05860138, 43.00310516, 0.47180557, 0.04305766, -1.65771508, 0.99988687, -0.00412227, -0.00031615, 0.01446721, 0.02309540, 0.92892766, -0.63609910, 87.59700775, 1211.09814453, 39.34999847, 0.00000000
1, 0.1100, 11, -0.02290593, -0.93936121, -0.36265877, 0.92562914, 1.26149356, 0.49665460, 14.08759975, -66.76226807, 42.92698288, 0.48070070, 0.04292754, -1.64391434, 0.99988824, -0.00419983, -0.00031439, 0.01434681, 0.02365718, 0.93103838, -0.63730633, 87.59700775, 1211.09814453, 39.34999847, 0.00000000
1, 0.1200, 12, -0.02396156, -0.93928933, -0.36239287, 1.01911819, 1.11068738, 0.31741500, 13.86821175, -67.64184570, 43.17439651, 0.49059051, 0.04392967, -1.63213396, 0.99988937, -0.00428622, -0.00032234, 0.01424408, 0.02471872, 0.93079448, -0.63757080, 87.59700775, 1211.09814453, 39.34999847, 0.00000000
1, 0.1300, 13, -0.02258662, -0.94088078, -0.36463535, 0.91234767, 0.88542444, 0.40089729, 13.86821175, -67.64184570, 43.17439651, 0.48709211, 0.05049346, -1.66233420, 0.99988574, -0.00425661, -0.00037893, 0.01450783, 0.02338270, 0.93226993, -0.63532728, 87.59700775, 1211.09814453, 39.34999847, 0.00000000
1, 0.1400, 14, -0.02216319, -0.94221592, -0.36464030, 0.64812696, 0.57685667, 0.25459215, 13.35630894, -67.11410522, 43.15536499, 0.49338880, 0.05017906, -1.65586722, 0.99988621, -0.00431149, -0.00037563, 0.01445141, 0.02304004, 0.93363827, -0.63532257, 87.59700775, 1211.09814453, 39.34999847, 0.00000000
1, 0.1500, 15, -0.02013490, -0.94397455, -0.36333847, 0.21995676, 0.33334148, 0.25078264, 13.17348671, -65.97064209, 42.98407745, 0.49547398, 0.04903299, -1.65179706, 0.99988675, -0.00432953, -0.00036552, 0.01441586, 0.02099933, 0.93533683, -0.63662380, 87.59700775, 1211.09814453, 39.34999847, 0.00000000
1, 0.1600, 16, -0.01867603, -0.94711941, -0.36165282, -0.20520057, 0.16273555, -0.01517780, 13.53913212, -65.53085327, 42.96504593, 0.49338722, 0.04975533, -1.65038395, 0.99988693, -0.00431141, -0.00037214, 0.01440355, 0.01953167, 0.93849063, -0.63830960, 87.59700775, 1211.09814453, 39.34999847, 0.00000000
1, 0.1700, 17, -0.02147522, -0.94375664, -0.35898244, 0.01306065, 0.20274101, -0.26110095, 13.79508114, -65.39891052, 42.98407745, 0.49350464, 0.05291744, -1.64942098, 0.99988705, -0.00431283, -0.00039975, 0.01439526, 0.02237518, 0.93514812, -0.64098012, 87.59700775, 1211.09814453, 39.34999847, 0.00000000
1, 0.1800, 18, -0.02054415, -0.94172412, -0.35941923, -0.43118706, -0.05606185, -0.38823077, 13.79508114, -65.39891052, 42.98407745, 0.48274961, 0.07178096, -1.69299245, 0.99988180, -0.00422157, -0.00056410, 0.01477611, 0.02157457, 0.93317944, -0.64054376, 87.59700775, 1211.09814453, 39.34999847, 0.00000000
1, 0.1900, 19, -0.02056144, -0.94333088, -0.35804635, -0.80533624, -0.35089996, -0.37570623, 13.50256634, -66.41043091, 43.23149109, 0.47480887, 0.07403661, -1.69783425, 0.99988151, -0.00415259, -0.00058463, 0.01481840, 0.02183452, 0.93499058, -0.64191806, 87.59700775, 1211.09814453, 39.34999847, 0.00000000
1, 0.2000, 20, -0.02145860, -0.93985021, -0.35726199, -0.82555783, -0.18037258, -0.31932425, 13.39287472, -66.76226807, 43.13633347, 0.46662176, 0.07637979, -1.70088291, 0.99988133, -0.00408147, -0.00060602, 0.01484504, 0.02277768, 0.93165070, -0.64270353, 87.59700775, 1211.09814453, 39.34999847, 0.00000000
1, 0.2100, 21, -0.02068527, -0.93814439, -0.36037970, -1.00435102, -0.31986123, -0.26897484, 13.79508114, -66.01461792, 42.88891602, 0.45666078, 0.07775515, -1.70510507, 0.99988115, -0.00399476, -0.00061917, 0.01488188, 0.02203449, 0.93010849, -0.63958704, 87.59700775, 1211.09814453, 39.34999847, 0.00000000
1, 0.2200, 22, -0.02136484, -0.93651533, -0.35991389, -0.89554912, -0.31758434, -0.35715142, 13.86821175, -66.23451233, 43.17439651, 0.44782391, 0.07995439, -1.70958996, 0.99988079, -0.00391796, -0.00063935, 0.01492104, 0.02274057, 0.92864233, -0.64005411, 87.59700775, 1211.09814453, 39.34999847, 0.00000000
1, 0.2300, 23, -0.02231646, -0.93421906, -0.36144626, -0.69842052, -0.43753898, -0.27238494, 13.97790337, -67.20205688, 43.07923508, 0.42948163, 0.09144574, -1.75608480, 0.99987525, -0.00375971, -0.00074048, 0.01532700, 0.02377425, 0.92652994, -0.63852310, 87.59700775, 1211.09814453, 39.34999847, 0.00000000
1, 0.2400, 24, -0.02188723, -0.93403184, -0.36131716, -0.73131484, -0.76372319, -0.27914193, 13.97790337, -67.20205688, 43.07923508, 0.42238185, 0.09131492, -1.76441061, 0.99987441, -0.00369780, -0.00074002, 0.01539960, 0.02348337, 0.92661434, -0.63865405, 87.59700775, 1211.09814453, 39.34999847, 0.00000000
1, 0.2500, 25, -0.02131273, -0.93606693, -0.36323312, -0.67802131, -0.81590551, -0.21008882, 14.19729233, -66.67430878, 43.02214050, 0.41582850, 0.09035238, -1.77296484, 0.99987340, -0.00364054, -0.00073223, 0.01547417, 0.02289633, 0.92876536, -0.63673902, 87.59700775, 1211.09814453, 39.34999847, 0.00000000
1, 0.2600, 26, -0.02202479, -0.93916368, -0.36473998, -0.60636497, -0.78075069, -0.22714730, 14.56293774, -66.85022736, 43.02214050, 0.40998572, 0.08966850, -1.78123379, 0.99987245, -0.00358952, -0.00072679, 0.01554626, 0.02359585, 0.93197238, -0.63523293, 87.59700775, 1211.09814453, 39.34999847, 0.00000000
1, 0.2700, 27, -0.02372617, -0.94047958, -0.36602950, -0.48280534, -0.59137195, -0.20596565, 14.08759975, -66.93818665, 42.75569153, 0.40532842, 0.08946925, -1.78761780, 0.99987179, -0.00354890, -0.00072549, 0.01560193, 0.02528652, 0.93337393, -0.63394403, 87.59700775, 1211.09814453, 39.34999847, 0.00000000
1, 0.2800, 28, -0.02382137, -0.93903685, -0.36478946, -0.71901965, -0.44083175, -0.07902981, 13.86821175, -65.83870697, 42.96504593, 0.38681814, 0.09233263, -1.83333206, 0.99986607, -0.00338807, -0.00075164, 0.01600078, 0.02539084, 0.93208754, -0.63518512, 87.59700775, 1211.09814453, 39.34999847, 0.00000000
1, 0.2900, 29, -0.02586290, -0.93887240, -0.36157990, -0.55756551, -0.47415763, -0.06264611, 13.86821175, -65.83870697, 42.96504593, 0.38137528, 0.09121695, -1.83813536, 0.99986553, -0.00334046, -0.00074253, 0.01604262, 0.02746159, 0.93218130, -0.63839644, 87.59700775, 1211.09814453, 39.34999847, 0.00000000
1, 0.3000, 30, -0.02617422, -0.93906879, -0.36100009, -0.55976939, -0.28605029, -0.02352807, 13.28317833, -65.88268280, 42.81278610, 0.37585622, 0.09040853, -1.84104180, 0.99986523, -0.00329221, -0.00073616, 0.01606792, 0.02775791, 0.93247670, -0.63897693, 87.59700775, 1211.09814453, 39.34999847, 0.00000000
1, 0.3100, 31, -0.02634249, -0.93582767, -0.36177871, -0.47087651, -0.14755154, -0.05604491, 13.97790337, -68.08164215, 43.25052261, 0.37119329, 0.09040407, -1.84273934, 0.99986517, -0.00325153, -0.00073673, 0.01608270, 0.02791318, 0.92931294, -0.63819885, 87.59700775, 1211.09814453, 39.34999847, 0.00000000
1, 0.3200, 32, -0.02666031, -0.93528306, -0.36180902, -0.68555421, -0.09663527, -0.12463082, 14.12416077, -66.63032532, 43.49793625, 0.36437067, 0.09122019, -1.84428549, 0.99986517, -0.00319213, -0.00074477, 0.01609617, 0.02824347, 0.92887145, -0.63816917, 87.59700775, 1211.09814453, 39.34999847, 0.00000000
1, 0.3300, 33, -0.02709840, -0.93514186, -0.36150512, -0.90125573, 0.03975834, -0.17383821, 14.34354877, -67.64184570, 43.30761719, 0.34722114, 0.08987283, -1.88596940, 0.99985975, -0.00304257, -0.00073431, 0.01645973, 0.02869253, 0.92891014, -0.63847423, 87.59700775, 1211.09814453, 39.34999847, 0.00000000
1, 0.3400, 34, -0.02596431, -0.93697053, -0.36045972, -0.83461076, 0.32905272, 0.00782301, 14.34354877, -67.64184570, 43.30761719, 0.33880273, 0.09098801, -1.88310301, 0.99986035, -0.00296925, -0.00074532, 0.01643470, 0.02754365, 0.93100655, -0.63952124, 87.59700775, 1211.09814453, 39.34999847, 0.00000000
1, 0.3500, 35, -0.02595997, -0.93629843, -0.35857797, -0.65415245, 0.36648443, -0.09741209, 13.39287472, -66.05860138, 42.62246704, 0.33217904, 0.09321491, -1.88021195, 0.99986088, -0.00291176, -0.00076578, 0.01640949, 0.02757500, 0.93046081, -0.64140368, 87.59700775, 1211.09814453, 39.34999847, 0.00000000
1, 0.3600, 36, -0.02544769, -0.93968457, -0.35795051, -0.40385440, 0.31556293, -0.01135697, 13.13692093, -66.27849579, 42.27989578, 0.32807514, 0.09446012, -1.87742090, 0.99986142, -0.00287611, -0.00077730, 0.01638514, 0.02708872, 0.93393528, -0.64203167, 87.59700775, 1211.09814453, 39.34999847, 0.00000000
1, 0.3700, 37, -0.02501168, -0.93926489, -0.35905039, -0.24226514, 0.45577061, -0.11437356, 13.53913212, -68.21358490, 43.04117203, 0.32555297, 0.09717078, -1.87365127, 0.99986190, -0.00285446, -0.00080141, 0.01635229, 0.02669405, 0.93356878, -0.64093196, 87.59700775, 1211.09814453, 39.34999847, 0.00000000
1, 0.3800, 38, -0.02522112, -0.93988723, -0.36238015, -0.22656479, 0.29723808, 0.14592013, 13.72195435, -68.08164215, 42.98407745, 0.31798106, 0.10787091, -1.91041017, 0.99985677, -0.00279021, -0.00089496, 0.01667324, 0.02696129, 0.93425107, -0.63760245, 87.59700775, 1211.09814453, 39.34999847, 0.00000000
1, 0.3900, 39, -0.02459964, -0.93933952, -0.36369246, -0.22690982, 0.22748075, 0.21476783, 13.72195435, -68.08164215, 42.98407745, 0.31564155, 0.10668462, -1.90758049, 0.99985719, -0.00276960, -0.00088501, 0.01664850, 0.02646757, 0.93381643, -0.63629055, 87.59700775, 1211.09814453, 39.34999847, 0.00000000
1, 0.4000, 40, -0.02617223, -0.93790871, -0.36702237, -0.42342967, 0.22679289, 0.16261977, 13.42943573, -67.59787750, 42.90795135, 0.31132948, 0.10598931, -1.90499401, 0.99985766, -0.00273186, -0.00087964, 0.01662588, 0.02802606, 0.93244231, -0.63296098, 87.59700775, 1211.09814453, 39.34999847, 0.00000000
1, 0.4100, 41, -0.02569904, -0.93511307, -0.36598179, -0.58340734, 0.07115177, 0.15983708, 13.57569790, -67.11410522, 42.62246704, 0.30546314, 0.10475458, -1.90391910, 0.99985802, -0.00268048, -0.00086974, 0.01661643, 0.02753441, 0.92974085, -0.63400209, 87.59700775, 1211.09814453, 39.34999847, 0.00000000
1, 0.4200, 42, -0.02541663, -0.93459940, -0.36739039, -0.46074772, 0.22479220, 0.26816171, 13.35630894, -66.80625153, 42.67956161, 0.30078596, 0.10306115, -1.90098727, 0.99985856, -0.00263941, -0.00085571, 0.01659077, 0.02722596, 0.92932701, -0.63259405, 87.59700775, 1211.09814453, 39.34999847, 0.00000000
1, 0.4300, 43, -0.02491587, -0.93344665, -0.36654589, -0.63785958, 0.03527797, 0.22956277, 13.68538952, -67.77378845, 42.66053009, 0.27281016, 0.10880767, -1.94029367, 0.99985343, -0.00239645, -0.00090908, 0.01693365, 0.02672200, 0.92835772, -0.63343948, 87.59700775, 1211.09814453, 39.34999847, 0.00000000
1, 0.4400, 44, -0.02461837, -0.93308794, -0.36580163, -0.40272295, 0.05683860, 0.07109175, 13.68538952, -67.77378845, 42.66053009, 0.26876125, 0.10835078, -1.93961918, 0.99985361, -0.00236105, -0.00090570, 0.01692772, 0.02651501, 0.92836881, -0.63418543, 87.59700775, 1211.09814453, 39.34999847, 0.00000000
1, 0.4500, 45, -0.02321342, -0.93301243, -0.36738572, -0.33163792, 0.07398102, 0.10639130, 13.86821175, -67.59787750, 42.60343552, 0.26541451, 0.10762775, -1.93863976, 0.99985379, -0.00233173, -0.00089991, 0.01691913, 0.02509778, 0.92835611, -0.63260168, 87.59700775, 1211.09814453, 39.34999847, 0.00000000
1, 0.4600, 46, -0.02239501, -0.93448085, -0.36627966, -0.33085650, -0.01178283, 0.10458583, 13.64882374, -66.41043091, 42.47021484, 0.26211122, 0.10661034, -1.93845749, 0.99985385, -0.00230276, -0.00089152, 0.01691750, 0.02426412, 0.92988318, -0.63370800, 87.59700775, 1211.09814453, 39.34999847, 0.00000000
1, 0.4700, 47, -0.02374263, -0.93485141, -0.36725083, -0.20732948, 0.07353307, 0.19389305, 13.75851536, -66.45441437, 42.41311646, 0.26000527, 0.10506460, -1.93713069, 0.99985415, -0.00228414, -0.00087837, 0.01690587, 0.02558734, 0.93030137, -0.63273710, 87.59700775, 1211.09814453, 39.34999847, 0.00000000
1, 0.4800, 48, -0.02555074, -0.93393028, -0.36741781, -0.16843249, -0.04396255, 0.05067735, 13.75851536, -67.20205688, 43.06019974, 0.22011542, 0.10941177, -1.97857523, 0.99984872, -0.00193707, -0.00092149, 0.01726726, 0.02740397, 0.92957735, -0.63257092, 87.59700775, 1211.09814453, 39.34999847, 0.00000000
1, 0.4900, 49, -0.02603431, -0.93545377, -0.36595714, -0.29046705, -0.26621407, -0.05909168, 13.57569790, -67.81777191, 42.90795135, 0.21729396, 0.10899574, -1.98133826, 0.99984837, -0.00191241, -0.00091824, 0.01729134, 0.02793663, 0.93164337, -0.63403380, 87.59700775, 1211.09814453, 39.34999847, 0.00000000
1, 0.5000, 50, -0.02807037, -0.93792516, -0.36578172, -0.30661476, -0.24690957, -0.19926286, 13.57569790, -67.81777191, 42.90795135, 0.21430638, 0.10996240, -1.98445427, 0.99984789, -0.00188651, -0.00092707, 0.01731852, 0.02998092, 0.93416715, -0.63420939, 87.59700775, 1211.09814453, 39.34999847, 0.00000000
1, 0.5100, 51, -0.03065531, -0.93897235, -0.36557132, -0.34253171, -0.16056748, -0.25007269, 13.10035515, -68.16960144, 42.85084915, 0.21094674, 0.11171099, -1.98694408, 0.99984747, -0.00185748, -0.00094280, 0.01734024, 0.03259292, 0.93526632, -0.63442004, 87.59700775, 1211.09814453, 39.34999847, 0.00000000
1, 0.5200, 52, -0.03036839, -0.94008219, -0.36449924, -0.57834733, -0.02689350, -0.14107090, 13.79508114, -66.27849579, 42.48923874, 0.20517920, 0.11293019, -1.98785961, 0.99984753, -0.00180735, -0.00095429, 0.01734820, 0.03233033, 0.93646085, -0.63549232, 87.59700775, 1211.09814453, 39.34999847, 0.00000000
1, 0.5300, 53, -0.03014997, -0.94029528, -0.36431375, -0.41772306, -0.13054985, -0.02069350, 13.61225796, -66.27849579, 42.75569153, 0.19424549, 0.08509205, -2.03161979, 0.99984115, -0.00170801, -0.00071240, 0.01772952, 0.03199843, 0.93679601, -0.63567841, 87.59700775, 1211.09814453, 39.34999847, 0.00000000
1, 0.5400, 54, -0.03163042, -0.94059056, -0.36436284, -0.61768544, -0.05925125, 0.05818518, 12.99066353, -69.09316254, 42.88891602, 0.18807727, 0.08433989, -2.03213406, 0.99984115, -0.00165408, -0.00070678, 0.01773396, 0.03310680, 0.93726963, -0.63563061, 87.59700775, 1211.09814453, 39.34999847, 0.00000000
1, 0.5500, 55, -0.03070138, -0.93919456, -0.36701953, -0.17556344, 0.02644167, 0.23620266, 12.99066353, -69.09316254, 42.88891602, 0.18628630, 0.08223269, -2.03108668, 0.99984133, -0.00163812, -0.00068869, 0.01772478, 0.03214762, 0.93592900, -0.63297415, 87.59700775, 1211.09814453, 39.34999847, 0.00000000
1, 0.5600, 56, -0.03075146, -0.93747342, -0.36796156, -0.25174609, 0.24599949, 0.41683474, 14.23385715, -67.42195129, 43.06019974, 0.18366747, 0.07923725, -2.02735686, 0.99984199, -0.00161478, -0.00066301, 0.01769218, 0.03215241, 0.93424600, -0.63203228, 87.59700775, 1211.09814453, 39.34999847, 0.00000000
1, 0.5700, 57, -0.03075379, -0.93537498, -0.37157720, -0.59510231, 0.53492355, 0.42395967, 13.39287472, -67.24604034, 42.88891602, 0.17755775, 0.07721964, -2.02100062, 0.99984312, -0.00156113, -0.00064644, 0.01763665, 0.03211329, 0.93223488, -0.62841696, 87.59700775, 1211.09814453, 39.34999847, 0.00000000
1, 0.5800, 58, -0.03067141, -0.93448311, -0.37200069, -0.46880007, 0.45014453, 0.42179084, 13.75851536, -68.21358490, 42.88891602, 0.14257604, 0.06710789, -2.05561614, 0.99983817, -0.00125451, -0.00056321, 0.01793838, 0.03196150, 0.93156993, -0.62799418, 87.59700775, 1211.09814453, 39.34999847, 0.00000000
1, 0.5900, 59, -0.03198379, -0.93456268, -0.37401554, -0.59638500, 0.56808287, 0.49497396, 13.39287472, -66.23451233, 42.71763229, 0.13643210, 0.06455545, -2.04869533, 0.99983943, -0.00120047, -0.00054198, 0.01787794, 0.03312789, 0.93213445, -0.62598085, 87.59700775, 1211.09814453, 39.34999847, 0.00000000
1, 0.6000, 60, -0.03265788, -0.93430907, -0.37528259, -0.76144928, 0.94389111, 0.52095824, 13.39287472, -66.23451233, 42.71763229, 0.12854059, 0.06313112, -2.03821516, 0.99984109, -0.00113135, -0.00053088, 0.01778644, 0.03376815, 0.93201458, -0.62471414, 87.59700775, 1211.09814453, 39.34999847, 0.00000000
1, 0.6100, 61, -0.03202850, -0.93311393, -0.37508252, -0.94137365, 1.06312680, 0.48885897, 12.77127552, -65.83870697, 42.66053009, 0.11882973, 0.06244336, -2.02679586, 0.99984294, -0.00104646, -0.00052650, 0.01768675, 0.03312759, 0.93097866, -0.62491459, 87.59700775, 1211.09814453, 39.34999847, 0.00000000
1, 0.6200, 62, -0.03059643, -0.93304515, -0.37620485, -0.78373468, 1.23334169, 0.65016001, 12.80784130, -67.33399963, 42.86988068, 0.11062622, 0.06086789, -2.01316619, 0.99984515, -0.00097458, -0.00051413, 0.01756778, 0.03166898, 0.93106675, -0.62379265, 87.59700775, 1211.09814453, 39.34999847, 0.00000000
1, 0.6300, 63, -0.03039991, -0.93368107, -0.37629953, -0.89226174, 1.33541441, 0.65263796, 13.97790337, -67.37797546, 42.83182144, 0.08232965, 0.05574609, -2.03859997, 0.99984139, -0.00072700, -0.00047362, 0.01778954, 0.03143154, 0.93193740, -0.62369835, 87.59700775, 1211.09814453, 39.34999847, 0.00000000
1, 0.6400, 64, -0.02931743, -0.93193489, -0.37581366, -0.79849249, 1.04623985, 0.54080164, 12.91753292, -68.08164215, 42.54634094, 0.07402645, 0.05452508, -2.02711463, 0.99984324, -0.00065432, -0.00046432, 0.01768929, 0.03027578, 0.93058807, -0.62418497, 87.59700775, 1211.09814453, 39.34999847, 0.00000000
1, 0.6500, 65, -0.03010795, -0.93047178, -0.37655026, -0.51134259, 0.63341594, 0.34282738, 12.91753292, -68.08164215, 42.54634094, 0.06872783, 0.05363711, -2.02010512, 0.99984437, -0.00060792, -0.00045743, 0.01762810, 0.03104932, 0.92924517, -0.62344849, 87.59700775, 1211.09814453, 39.34999847, 0.00000000
1, 0.6600, 66, -0.02772834, -0.93056786, -0.37597111, -0.36767995, 0.53076506, 0.39296460, 13.61225796, -68.30153656, 43.00310516, 0.06488985, 0.05191308, -2.01384020, 0.99984539, -0.00057414, -0.00044301, 0.01757341, 0.02864419, 0.92940831, -0.62402779, 87.59700775, 1211.09814453, 39.34999847, 0.00000000
1, 0.6700, 67, -0.02668092, -0.93015307, -0.37617210, -0.26016039, 0.56620121, 0.37580231, 13.64882374, -67.59787750, 43.15536499, 0.06211578, 0.05047597, -2.00727105, 0.99984640, -0.00054969, -0.00043092, 0.01751607, 0.02757285, 0.92905200, -0.62382692, 87.59700775, 1211.09814453, 39.34999847, 0.00000000
1, 0.6800, 68, -0.02816509, -0.93221784, -0.37614155, -0.29843244, 0.61508578, 0.51757365, 14.27041817, -66.54237366, 42.79375458, 0.03225713, 0.04251587, -2.04088879, 0.99984133, -0.00028806, -0.00036595, 0.01780927, 0.02899554, 0.93128115, -0.62385768, 87.59700775, 1211.09814453, 39.34999847, 0.00000000
1, 0.6900, 69, -0.02752230, -0.93074638, -0.37803164, -0.35257217, 0.54490650, 0.58657712, 13.61225796, -66.23451233, 42.54634094, 0.02853489, 0.03904554, -2.03376627, 0.99984246, -0.00025502, -0.00033626, 0.01774710, 0.02822286, 0.93022394, -0.62196797, 87.59700775, 1211.09814453, 39.34999847, 0.00000000
1, 0.7000, 70, -0.02792834, -0.92984438, -0.37562966, -0.18912426, 0.42724952, 0.51329011, 13.61225796, -66.23451233, 42.54634094, 0.02649595, 0.03582005, -2.02796769, 0.99984336, -0.00023672, -0.00030845, 0.01769650, 0.02858211, 0.92937458, -0.62437004, 87.59700775, 1211.09814453, 39.34999847, 0.00000000
1, 0.7100, 71, -0.02861594, -0.93030679, -0.37397900, 0.02820482, 0.32745385, 0.42263550, 13.79508114, -67.99369049, 43.21246338, 0.02665115, 0.03308014, -2.02336764, 0.99984407, -0.00023764, -0.00028453, 0.01765635, 0.02921289, 0.92984009, -0.62602073, 87.59700775, 1211.09814453, 39.34999847, 0.00000000
1, 0.7200, 72, -0.02957366, -0.93610764, -0.37433875, 0.26185399, 0.24323231, 0.43772817, 13.94133854, -67.42195129, 42.83182144, 0.02916809, 0.02988946, -2.01943946, 0.99984467, -0.00025910, -0.00025631, 0.01762208, 0.03011793, 0.93562210, -0.62566102, 87.59700775, 1211.09814453, 39.34999847, 0.00000000
1, 0.7300, 73, -0.02923521, -0.93777460, -0.37465468, 0.26603541, -0.08123761, 0.34300232, 13.17348671, -67.59787750, 42.64150238, -0.01571182, 0.00804977, -2.05943823, 0.99983853, 0.00013583, -0.00007270, 0.01797101, 0.02963686, 0.93743783, -0.62534511, 87.59700775, 1211.09814453, 39.34999847, 0.00000000
1, 0.7400, 74, -0.02743002, -0.93791175, -0.37195909, 0.10413378, -0.18713972, 0.44674110, 12.73470974, -66.58635712, 42.33699036, -0.01467498, 0.00320757, -2.05951977, 0.99983859, 0.00012754, -0.00003029, 0.01797172, 0.02751788, 0.93818140, -0.62804079, 87.59700775, 1211.09814453, 39.34999847, 0.00000000
1, 0.7500, 75, -0.02873406, -0.93800211, -0.37129706, -0.07787075, -0.00101229, 0.52152443, 12.73470974, -66.58635712, 42.33699036, -0.01549756, -0.00165068, -2.05764389, 0.99983889, 0.00013548, 0.00001197, 0.01795536, 0.02873650, 0.93825901, -0.62870288, 87.59700775, 1211.09814453, 39.34999847, 0.00000000
1, 0.7600, 76, -0.02807283, -0.93535614, -0.37025553, -0.70544320, 0.09812657, 0.45521560, 13.28317833, -66.01461792, 42.20376587, -0.02261186, -0.00553012, -2.05525899, 0.99983919, 0.00019816, 0.00004471, 0.01793456, 0.02800220, 0.93570095, -0.62974441, 87.59700775, 1211.09814453, 39.34999847, 0.00000000
1, 0.7700, 77, -0.02900546, -0.93370974, -0.36917701, -0.52439260, -0.03711568, 0.41666174, 13.57569790, -67.02614594, 42.69859695, -0.02789076, -0.00954215, -2.05422306, 0.99983937, 0.00024485, 0.00007889, 0.01792553, 0.02886755, 0.93417078, -0.63082290, 87.59700775, 1211.09814453, 39.34999847, 0.00000000
1, 0.7800, 78, -0.02851218, -0.93115872, -0.37004563, -0.27538186, 0.18783998, 0.42062920, 13.35630894, -66.23451233, 42.64150238, -0.04946190, -0.02368896, -2.09262085, 0.99983317, 0.00043534, 0.00019881, 0.01826063, 0.02826075, 0.93176365, -0.62995410, 87.59700775, 1211.09814453, 39.34999847, 0.00000000
1, 0.7900, 79, -0.02823019, -0.93023777, -0.37215894, -0.53677887, -0.13472855, 0.08065967, 12.91753292, -67.24604034, 42.77472687, -0.05481036, -0.02492798, -2.09372211, 0.99983299, 0.00048221, 0.00020876, 0.01827025, 0.02779992, 0.93114811, -0.62784052, 87.59700775, 1211.09814453, 39.34999847, 0.00000000
1, 0.8000, 80, -0.02897916, -0.92727417, -0.37328431, -0.69533920, -0.14999545, -0.11253755, 13.35630894, -65.83870697, 42.56536865, -0.06171415, -0.02443080, -2.09572291, 0.99983263, 0.00054237, 0.00020331, 0.01828772, 0.02855236, 0.92831552, -0.62671506, 87.59700775, 1211.09814453, 39.34999847, 0.00000000
1, 0.8100, 81, -0.02771980, -0.92630005, -0.37397125, -0.36906838, -0.31669837, -0.25766709, 13.35630894, -65.83870697, 42.56536865, -0.06529006, -0.02319369, -2.09971237, 0.99983203, 0.00057338, 0.00019193, 0.01832253, 0.02730673, 0.92741627, -0.62602806, 87.59700775, 1211.09814453, 39.34999847, 0.00000000
1, 0.8200, 82, -0.02847269, -0.92847437, -0.37602580, -0.20681664, -0.38375676, -0.27715167, 13.83164692, -66.19053650, 42.67956161, -0.06721602, -0.02202510, -2.10435796, 0.99983120, 0.00059000, 0.00018140, 0.01836306, 0.02808010, 0.92963940, -0.62397349, 87.59700775, 1211.09814453, 39.34999847, 0.00000000
1, 0.8300, 83, -0.02973255, -0.92507696, -0.37610748, 0.17184272, -0.39566270, -0.41918704, 13.68538952, -67.02614594, 43.23149109, -0.10105971, -0.02357726, -2.15032196, 0.99982351, 0.00088562, 0.00018917, 0.01876416, 0.02935404, 0.92639041, -0.62389159, 87.59700775, 1211.09814453, 39.34999847, 0.00000000
1, 0.8400, 84, -0.03152341, -0.92446852, -0.37772265, 1.10756087, -0.50583756, -0.58257133, 13.35630894, -67.55389404, 43.25052261, -0.08979794, -0.02001157, -2.15686440, 0.99982262, 0.00078678, 0.00015985, 0.01882121, 0.03115231, 0.92611748, -0.62227595, 87.59700775, 1211.09814453, 39.34999847, 0.00000000
1, 0.8500, 85, -0.02838972, -0.92468899, -0.37824383, 1.16401207, -0.79701263, -0.58886564, 13.46600056, -68.21358490, 43.09827042, -0.07789712, -0.01745358, -2.16611791, 0.99982113, 0.00068254, 0.00013943, 0.01890191, 0.02806698, 0.92612278, -0.62175506, 87.59700775, 1211.09814453, 39.34999847, 0.00000000
1, 0.8600, 86, -0.02936781, -0.92562234, -0.37795353, 1.50587559, -0.94900113, -0.57552868, 13.46600056, -68.21358490, 43.09827042, -0.06253079, -0.01557441, -2.17664146, 0.99981946, 0.00054817, 0.00012552, 0.01899370, 0.02908068, 0.92681986, -0.62204570, 87.59700775, 1211.09814453, 39.34999847, 0.00000000
1, 0.8700, 87, -0.03046557, -0.92683232, -0.37763575, 2.11723018, -0.99424332, -0.66624218, 12.80784130, -65.92666626, 42.66053009, -0.04104461, -0.01301501, -2.18775988, 0.99981773, 0.00036028, 0.00010672, 0.01909068, 0.03022327, 0.92769021, -0.62236387, 87.59700775, 1211.09814453, 39.34999847, 0.00000000
1, 0.8800, 88, -0.03139827, -0.92867959, -0.37735149, 2.24370503, -1.04414380, -0.70283484, 12.88097191, -65.75074005, 42.88891602, -0.03101424, -0.01233392, -2.23947191, 0.99980903, 0.00027270, 0.00010232, 0.01954186, 0.03119218, 0.92920923, -0.62264836, 87.59700775, 1211.09814453, 39.34999847, 0.00000000
1, 0.8900, 89, -0.03361300, -0.92947227, -0.37747365, 2.13692927, -1.02668869, -0.77245438, 13.28317833, -68.38949585, 43.36471558, -0.00931215, -0.00889540, -2.25126863, 0.99980700, 0.00008277, 0.00007602, 0.01964476, 0.03343539, 0.92977339, -0.62252629, 87.59700775, 1211.09814453, 39.34999847, 0.00000000
1, 0.9000, 90, -0.03579988, -0.93061554, -0.37658271, 2.42433548, -0.97183347, -0.84249371, 14.05103493, -66.01461792, 43.07923508, 0.01526667, -0.00460970, -2.26273036, 0.99980509, -0.00013241, 0.00004285, 0.01974475, 0.03569202, 0.93051660, -0.62341726, 87.59700775, 1211.09814453, 39.34999847, 0.00000000
1, 0.9100, 91, -0.03649253, -0.93071079, -0.37502176, 2.56530905, -0.88694990, -0.71809232, 14.05103493, -66.01461792, 43.07923508, 0.04119335, -0.00115967, -2.27290249, 0.99980330, -0.00035921, 0.00001725, 0.01983351, 0.03645208, 0.93015963, -0.62497813, 87.59700775, 1211.09814453, 39.34999847, 0.00000000
1, 0.9200, 92, -0.03645279, -0.93172950, -0.37416708, 2.24078989, -0.80486470, -0.64506036, 13.75851536, -65.35493469, 42.66053009, 0.06386116, 0.00191596, -2.28213048, 0.99980158, -0.00055752, -0.00000562, 0.01991403, 0.03646711, 0.93075967, -0.62583244, 87.59700775, 1211.09814453, 39.34999847, 0.00000000
1, 0.9300, 93, -0.03497263, -0.93208903, -0.36923057, 2.34468770, -0.72169524, -0.43269011, 13.68538952, -66.63032532, 43.25052261, 0.07932337, -0.00392424, -2.33051229, 0.99979299, -0.00069139, 0.00004832, 0.02033612, 0.03498848, 0.93074846, -0.63076854, 87.59700775, 1211.09814453, 39.34999847, 0.00000000
1, 0.9400, 94, -0.03320596, -0.93312943, -0.37124947, 2.05348253, -0.52097839, -0.25179616, 12.84440613, -67.33399963, 43.02214050, 0.10000914, -0.00347395, -2.33572221, 0.99979192, -0.00087194, 0.00004810, 0.02038157, 0.03314557, 0.93151307, -0.62874925, 87.59700775, 1211.09814453, 39.34999847, 0.00000000
1, 0.9500, 95, -0.03315236, -0.93365127, -0.37294486, 2.16093230, -0.45095009, -0.28580931, 13.13692093, -67.68582916, 43.07923508, 0.12175993, -0.00244933, -2.34037089, 0.99979097, -0.00106190, 0.00004307, 0.02042213, 0.03310577, 0.93167758, -0.62705314, 87.59700775, 1211.09814453, 39.34999847, 0.00000000
1, 0.9600, 96, -0.03283116, -0.93378145, -0.37408072, 2.10710454, -0.55543506, -0.21752803, 13.13692093, -67.68582916, 43.07923508, 0.14297974, -0.00244639, -2.34576178, 0.99978971, -0.00124703, 0.00004688, 0.02046916, 0.03278620, 0.93142474, -0.62591648, 87.59700775, 1211.09814453, 39.34999847, 0.00000000
1, 0.9700, 97, -0.03251451, -0.93452138, -0.37719017, 2.30308580, -0.46869668, -0.18114753, 12.69814968, -66.58635712, 42.92698288, 0.16613351, -0.00246018, -2.35016251, 0.99978864, -0.00144904, 0.00005120, 0.02050754, 0.03247156, 0.93177056, -0.62280607, 87.59700775, 1211.09814453, 39.34999847, 0.00000000
1, 0.9800, 98, -0.03285366, -0.93745273, -0.37918410, 1.92919028, -0.46849903, -0.37336066, 13.24661255, -65.88268280, 42.85084915, 0.16098447, -0.00612023, -2.39605594, 0.99978048, -0.00140343, 0.00008277, 0.02090791, 0.03280636, 0.93444204, -0.62081134, 87.59700775, 1211.09814453, 39.34999847, 0.00000000
1, 0.9900, 99, -0.03128733, -0.93758202, -0.38116786, 1.34135008, -0.65924329, -0.53377688, 13.42943573, -66.93818665, 43.51697159, 0.17461194, -0.00353435, -2.40376902, 0.99977893, -0.00152279, 0.00006280, 0.02097523, 0.03121091, 0.93462408, -0.61882782, 87.59700775, 1211.09814453, 39.34999847, 0.00000000
1, 1.0000, 100, -0.03057674, -0.93690962, -0.37863225, 1.32409704, -0.81461853, -0.48425573, 12.84440613, -66.80625153, 43.45987701, 0.18810233, -0.00197124, -2.41274810, 0.99977708, -0.00164078, 0.00005176, 0.02105358, 0.03053338, 0.93371516, -0.62136263, 87.59700775, 1211.09814453, 39.34999847, 0.00000000
1, 1.0100, 101, -0.02996401, -0.93279076, -0.37825760, 1.12558341, -0.73097533, -0.44673327, 12.84440613, -66.80625153, 43.45987701, 0.19958164, -0.00045558, -2.42087579, 0.99977541, -0.00174120, 0.00004077, 0.02112451, 0.02993926, 0.92937672, -0.62173659, 87.59700775, 1211.09814453, 39.34999847, 0.00000000
1, 1.0200, 102, -0.03075447, -0.93126470, -0.37911680, 1.17746592, -0.38606504, -0.52753222, 12.80784130, -67.46593475, 43.09827042, 0.21151097, 0.00306502, -2.42605519, 0.99977422, -0.00184593, 0.00001233, 0.02116975, 0.03078482, 0.92766213, -0.62087673, 87.59700775, 1211.09814453, 39.34999847, 0.00000000
1, 1.0300, 103, -0.03009902, -0.92793930, -0.37865505, 0.96258312, -0.47409022, -0.49356866, 12.69814968, -67.64184570, 42.67956161, 0.18012021, 0.00244663, -2.47136760, 0.99976623, -0.00157194, 0.00001255, 0.02156508, 0.03016760, 0.92431581, -0.62133837, 87.59700775, 1211.09814453, 39.34999847, 0.00000000
1, 1.0400, 104, -0.03136901, -0.92670500, -0.38081384, 0.81712055, -0.44291598, -0.36942005, 13.28317833, -69.31305695, 43.25052261, 0.18844183, 0.00428325, -2.47660780, 0.99976516, -0.00164489, -0.00000183, 0.02161082, 0.03143379, 0.92347968, -0.61918092, 87.59700775, 1211.09814453, 39.34999847, 0.00000000
1, 1.0500, 105, -0.03029045, -0.92915040, -0.37937346, 0.79921019, -0.63374305, -0.25032902, 12.99066353, -66.36645508, 42.69859695, 0.19662684, 0.00431841, -2.48320436, 0.99976379, -0.00171631, -0.00000050, 0.02166837, 0.03036988, 0.92577094, -0.62062079, 87.59700775, 1211.09814453, 39.34999847, 0.00000000
1, 1.0600, 106, -0.02975708, -0.93186420, -0.37883329, 1.02971804, -0.42694050, -0.19395161, 13.31974411, -66.36645508, 43.26955795, 0.20704293, 0.00458000, -2.48760581, 0.99976277, -0.00180723, -0.00000074, 0.02170678, 0.02983754, 0.92832893, -0.62116045, 87.59700775, 1211.09814453, 39.34999847, 0.00000000
1, 1.0700, 107, -0.03077948, -0.93486822, -0.37677372, 1.17048180, -0.23828073, -0.12010277, 13.31974411, -67.72981262, 43.26955795, 0.21882404, 0.00483447, -2.48994637, 0.99976218, -0.00191006, -0.00000069, 0.02172720, 0.03086481, 0.93112290, -0.62321925, 87.59700775, 1211.09814453, 39.34999847, 0.00000000
1, 1.0800, 108, -0.03129537, -0.93746191, -0.37316731, 1.36344516, 0.01826600, 0.02532685, 12.51532650, -66.54237366, 42.67956161, 0.21384257, 0.00032649, -2.52951431, 0.99975473, -0.00186574, 0.00003834, 0.02207235, 0.03135939, 0.93357301, -0.62682509, 87.59700775, 1211.09814453, 39.34999847, 0.00000000
1, 1.0900, 109, -0.03174380, -0.94004899, -0.37386763, 0.78642339, 0.33938017, 0.05142181, 13.13692093, -66.10257721, 43.00310516, 0.22159876, 0.00107874, -2.52595305, 0.99975520, -0.00193355, 0.00003321, 0.02204129, 0.03175105, 0.93622077, -0.62612510, 87.59700775, 1211.09814453, 39.34999847, 0.00000000
1, 1.1000, 110, -0.03210340, -0.94100535, -0.37347844, -0.02291127, 0.62493300, 0.04232333, 13.17348671, -65.75074005, 42.90795135, 0.22120494, 0.00294523, -2.51997900, 0.99975634, -0.00193047, 0.00001675, 0.02198919, 0.03214539, 0.93713260, -0.62651408, 87.59700775, 1211.09814453, 39.34999847, 0.00000000
1, 1.1100, 111, -0.03265316, -0.93943071, -0.37725765, -0.39991051, 0.77749985, -0.02362880, 13.13692093, -65.97064209, 42.96504593, 0.21702306, 0.00597623, -2.51293302, 0.99975777, -0.00189457, -0.00001061, 0.02192777, 0.03273518, 0.93562150, -0.62273508, 87.59700775, 1211.09814453, 39.34999847, 0.00000000
1, 1.1200, 112, -0.03264773, -0.93617797, -0.37664968, 0.04954271, 0.62635535, -0.01060340, 13.13692093, -65.97064209, 42.96504593, 0.21735525, 0.00834087, -2.50712156, 0.99975896, -0.00189792, -0.00003127, 0.02187711, 0.03277505, 0.93238956, -0.62334305, 87.59700775, 1211.09814453, 39.34999847, 0.00000000
1, 1.1300, 113, -0.03358579, -0.93340701, -0.37337860, -0.73752272, 0.57042617, -0.11484079, 13.13692093, -68.38949585, 42.47021484, 0.17910883, 0.00311385, -2.54179168, 0.99975288, -0.00156324, 0.00000750, 0.02217951, 0.03372752, 0.92980850, -0.62661487, 87.59700775, 1211.09814453, 39.34999847, 0.00000000
1, 1.1400, 114, -0.03090668, -0.92852193, -0.37722191, -1.14488351, 0.22642738, -0.26145294, 12.84440613, -67.50991058, 42.75569153, 0.16764240, 0.00637346, -2.54094720, 0.99975312, -0.00146383, -0.00002317, 0.02217218, 0.03099950, 0.92552471, -0.62277359, 87.59700775, 1211.09814453, 39.34999847, 0.00000000
1, 1.1500, 115, -0.02578176, -0.92774618, -0.37719116, -0.51524723, 0.00836533, -0.26796407, 12.95409870, -66.05860138, 42.77472687, 0.16251782, 0.00889896, -2.54198241, 0.99975294, -0.00141961, -0.00004618, 0.02218124, 0.02592383, 0.92488390, -0.62280476, 87.59700775, 1211.09814453, 39.34999847, 0.00000000
1, 1.1600, 116, -0.02503549, -0.92593449, -0.37732387, -0.21044306, -0.09330584, -0.20072097, 12.66158390, -65.22299194, 42.35601807, 0.16045205, 0.01043166, -2.54363346, 0.99975270, -0.00140188, -0.00005993, 0.02219567, 0.02521032, 0.92311805, -0.62267220, 87.59700775, 1211.09814453, 39.34999847, 0.00000000
1, 1.1700, 117, -0.02510391, -0.92431080, -0.37592840, -0.38759238, -0.14416517, -0.32429633, 12.66158390, -65.22299194, 42.35601807, 0.15665920, 0.01293173, -2.54626036, 0.99975222, -0.00136928, -0.00008245, 0.02221861, 0.02531638, 0.92155921, -0.62406790, 87.59700775, 1211.09814453, 39.34999847, 0.00000000
1, 1.1800, 118, -0.02394956, -0.92336100, -0.37513974, 0.27514821, -0.13981944, -0.27349794, 13.50256634, -65.75074005, 42.66053009, 0.09200124, 0.02705310, -2.58844185, 0.99974459, -0.00080799, -0.00021789, 0.02258667, 0.02425131, 0.92089683, -0.62485701, 87.59700775, 1211.09814453, 39.34999847, 0.00000000
1, 1.1900, 119, -0.02248017, -0.93010515, -0.37529510, 0.49381346, -0.35939795, -0.38425323, 13.35630894, -67.24604034, 42.96504593, 0.09706187, 0.02932863, -2.59305739, 0.99974364, -0.00085260, -0.00023671, 0.02262696, 0.02297483, 0.92843801, -0.62470335, 87.59700775, 1211.09814453, 39.34999847, 0.00000000
1, 1.2000, 120, -0.02484045, -0.93305331, -0.37614202, 0.44147369, -0.35810071, -0.48953563, 13.50256634, -67.50991058, 42.98407745, 0.10160758, 0.03258751, -2.59804773, 0.99974263, -0.00089291, -0.00026420, 0.02267054, 0.02538594, 0.93131483, -0.62385631, 87.59700775, 1211.09814453, 39.34999847, 0.00000000
1, 1.2100, 121, -0.02786953, -0.93484938, -0.37326500, 0.85429877, -0.37173116, -0.50866371, 12.99066353, -67.59787750, 42.54634094, 0.11028220, 0.03597926, -2.60312176, 0.99974149, -0.00096928, -0.00029204, 0.02271485, 0.02847403, 0.93298602, -0.62673312, 87.59700775, 1211.09814453, 39.34999847, 0.00000000
1, 1.2200, 122, -0.02876803, -0.93363589, -0.37175846, 1.05386841, -0.43678880, -0.63369024, 12.99066353, -67.59787750, 42.54634094, 0.12098227, 0.04029313, -2.60920429, 0.99974018, -0.00106350, -0.00032750, 0.02276799, 0.02944542, 0.93159246, -0.62823915, 87.59700775, 1211.09814453, 39.34999847, 0.00000000
1, 1.2300, 123, -0.03117017, -0.93191397, -0.36906472, 0.53220916, -0.52949810, -0.45826009, 12.99066353, -65.97064209, 42.48923874, 0.11353817, 0.02517374, -2.65744591, 0.99973065, -0.00099563, -0.00019665, 0.02318871, 0.03182399, 0.92979407, -0.63093281, 87.59700775, 1211.09814453, 39.34999847, 0.00000000
1, 1.2400, 124, -0.03180109, -0.93594158, -0.36746976, 0.65804273, -0.56281894, -0.45934567, 13.13692093, -65.97064209, 42.56536865, 0.12029858, 0.02741318, -2.66417170, 0.99972916, -0.00105508, -0.00021476, 0.02324742, 0.03226338, 0.93389046, -0.63252807, 87.59700775, 1211.09814453, 39.34999847, 0.00000000
1, 1.2500, 125, -0.03387824, -0.93409652, -0.37046373, 0.67380279, -0.27050790, -0.48840496, 13.39287472, -65.97064209, 43.02214050, 0.12714298, 0.03098010, -2.66828609, 0.99972832, -0.00111553, -0.00024445, 0.02328336, 0.03439596, 0.93192136, -0.62953377, 87.59700775, 1211.09814453, 39.34999847, 0.00000000
1, 1.2600, 126, -0.03433780, -0.93384361, -0.37148231, 0.73065269, -0.57854927, -0.51263338, 13.57569790, -67.55389404, 42.58440399, 0.13464920, 0.03365580, -2.67533875, 0.99972677, -0.00118157, -0.00026619, 0.02334493, 0.03490919, 0.93154716, -0.62851489, 87.59700775, 1211.09814453, 39.34999847, 0.00000000
1, 1.2700, 127, -0.03373326, -0.93232358, -0.37260324, 0.47754696, -0.46159559, -0.43908691, 13.57569790, -67.55389404, 42.58440399, 0.13956895, 0.03606965, -2.68110394, 0.99972558, -0.00122500, -0.00028619, 0.02339527, 0.03434414, 0.92991382, -0.62739366, 87.59700775, 1211.09814453, 39.34999847, 0.00000000
1, 1.2800, 128, -0.03180127, -0.93245810, -0.37390614, 0.20730694, -0.37851515, -0.40135676, 13.53913212, -67.37797546, 42.90795135, 0.07898926, 0.01378809, -2.72692537, 0.99971664, -0.00069198, -0.00010389, 0.02379474, 0.03234797, 0.93026221, -0.62609118, 87.59700775, 1211.09814453, 39.34999847, 0.00000000
1, 1.2900, 129, -0.03220197, -0.93000805, -0.37500060, 0.44005123, -0.25575718, -0.45222300, 13.75851536, -65.92666626, 42.94601059, 0.08349556, 0.01706985, -2.73083091, 0.99971581, -0.00073198, -0.00013156, 0.02382883, 0.03247865, 0.92858553, -0.62499833, 87.59700775, 1211.09814453, 39.34999847, 0.00000000
1, 1.3000, 130, -0.03000952, -0.92888570, -0.37650704, 1.10253310, -0.30372939, -0.34978887, 13.72195435, -66.98216248, 42.69859695, 0.09461653, 0.01922109, -2.73463273, 0.99971497, -0.00082945, -0.00014799, 0.02386203, 0.03033396, 0.92731506, -0.62349164, 87.59700775, 1211.09814453, 39.34999847, 0.00000000
1, 1.3100, 131, -0.03026939, -0.92819077, -0.37635106, 0.97453326, -0.22095622, -0.22460882, 13.35630894, -66.54237366, 42.37504959, 0.10442895, 0.02050947, -2.73724341, 0.99971431, -0.00091533, -0.00015716, 0.02388483, 0.03061731, 0.92643172, -0.62364733, 87.59700775, 1211.09814453, 39.34999847, 0.00000000
1, 1.3200, 132, -0.03005710, -0.92939317, -0.37724966, 0.95602512, 0.00360846, -0.32530087, 13.35630894, -66.54237366, 42.37504959, 0.11401895, 0.02355382, -2.73813391, 0.99971402, -0.00099963, -0.00018171, 0.02389264, 0.03044745, 0.92746639, -0.62274843, 87.59700775, 1211.09814453, 39.34999847, 0.00000000
1, 1.3300, 133, -0.02910519, -0.93102980, -0.37697408, 1.33028209, 0.12519950, -0.23599820, 12.73470974, -65.09105682, 42.08957291, 0.10015301, 0.02214565, -2.77865243, 0.99970567, -0.00087843, -0.00017201, 0.02424609, 0.02953095, 0.92901134, -0.62302375, 87.59700775, 1211.09814453, 39.34999847, 0.00000000
1, 1.3400, 134, -0.03098869, -0.93083036, -0.37785473, 1.34700108, 0.12390745, -0.14818497, 13.02722931, -65.39891052, 42.94601059, 0.11360916, 0.02397552, -2.77768183, 0.99970573, -0.00099621, -0.00018513, 0.02423766, 0.03139170, 0.92892694, -0.62214339, 87.59700775, 1211.09814453, 39.34999847, 0.00000000
1, 1.3500, 135, -0.03249838, -0.93247736, -0.37923685, 0.93398231, 0.29334560, -0.21367219, 13.31974411, -66.05860138, 42.73666000, 0.12288867, 0.02703301, -2.77546692, 0.99970615, -0.00107780, -0.00020987, 0.02421838, 0.03294965, 0.93039489, -0.62076092, 87.59700775, 1211.09814453, 39.34999847, 0.00000000
1, 1.3600, 136, -0.03292400, -0.93227625, -0.37687087, 1.07783377, 0.27760488, -0.23202157, 13.46600056, -66.67430878, 42.79375458, 0.13361996, 0.03019677, -2.77342176, 0.99970645, -0.00117209, -0.00023522, 0.02420059, 0.03342577, 0.93001461, -0.62312645, 87.59700775, 1211.09814453, 39.34999847, 0.00000000
1, 1.3700, 137, -0.03257888, -0.93229371, -0.37739030, 0.93473107, 0.10351890, -0.14735211, 14.16072655, -65.09105682, 42.47021484, 0.14295462, 0.03194651, -2.77273703, 0.99970651, -0.00125389, -0.00024852, 0.02419465, 0.03312593, 0.92985332, -0.62260658, 87.59700775, 1211.09814453, 39.34999847, 0.00000000
1, 1.3800, 138, -0.03193341, -0.93283069, -0.37951010, 1.29081380, 0.22468272, -0.04042447, 14.16072655, -65.09105682, 42.47021484, 0.11946845, 0.02575311, -2.81282377, 0.99969822, -0.00104776, -0.00019908, 0.02454427, 0.03247175, 0.93036056, -0.62048674, 87.59700775, 1211.09814453, 39.34999847, 0.00000000
1, 1.3900, 139, -0.03081994, -0.93224531, -0.37687844, 1.01972258, 0.42811915, -0.01773965, 12.99066353, -65.88268280, 42.58440399, 0.12954390, 0.02747392, -2.80862498, 0.99969894, -0.00113602, -0.00021198, 0.02450767, 0.03128973, 0.93005049, -0.62311900, 87.59700775, 1211.09814453, 39.34999847, 0.00000000
1, 1.4000, 140, -0.03049715, -0.93321991, -0.37663576, 1.19692564, 0.39235500, 0.15674926, 13.21005249, -66.63032532, 42.33699036, 0.14140831, 0.02743910, -2.80408216, 0.99969983, -0.00123951, -0.00020919, 0.02446806, 0.03097628, 0.93082559, -0.62336129, 87.59700775, 1211.09814453, 39.34999847, 0.00000000
1, 1.4100, 141, -0.03074919, -0.93163139, -0.37905782, 1.28580213, 0.47882229, 0.15829520, 13.42943573, -66.93818665, 42.47021484, 0.15411995, 0.02770197, -2.79869914, 0.99970078, -0.00135045, -0.00020883, 0.02442112, 0.03123462, 0.92903513, -0.62093866, 87.59700775, 1211.09814453, 39.34999847, 0.00000000
1, 1.4200, 142, -0.02986568, -0.93007493, -0.38029853, 1.19409668, 0.64907354, 0.19731171, 13.79508114, -67.20205688, 42.20376587, 0.16589056, 0.02821372, -2.79161477, 0.99970222, -0.00145323, -0.00021087, 0.02435935, 0.03035238, 0.92724741, -0.61969739, 87.59700775, 1211.09814453, 39.34999847, 0.00000000
1, 1.4300, 143, -0.03030277, -0.92901665, -0.37817270, 0.76304406, 0.74890018, 0.18315111, 13.79508114, -67.20205688, 42.20376587, 0.14197050, 0.02622611, -2.82448864, 0.99969548, -0.00124419, -0.00019826, 0.02464607, 0.03079449, 0.92617702, -0.62182313, 87.59700775, 1211.09814453, 39.34999847, 0.00000000
1, 1.4400, 144, -0.03048662, -0.93024004, -0.37612197, 0.85580570, 0.59723449, 0.05663055, 13.72195435, -67.24604034, 42.26086044, 0.15036671, 0.02786799, -2.81848550, 0.99969661, -0.00131778, -0.00021085, 0.02459374, 0.03096150, 0.92767334, -0.62387466, 87.59700775, 1211.09814453, 39.34999847, 0.00000000
1, 1.4500, 145, -0.02907046, -0.93227762, -0.37510577, 1.17732906, 0.49427125, 0.21168682, 12.88097191, -66.23451233, 42.29892349, 0.16199695, 0.02768319, -2.81279206, 0.99969769, -0.00141919, -0.00020681, 0.02454408, 0.02955288, 0.92952698, -0.62489033, 87.59700775, 1211.09814453, 39.34999847, 0.00000000
1, 1.4600, 146, -0.02749387, -0.93320364, -0.37681821, 1.12332439, 0.59762549, 0.16129005, 13.10035515, -65.83870697, 42.22279358, 0.17305946, 0.02834890, -2.80632901, 0.99969894, -0.00151583, -0.00021033, 0.02448773, 0.02798643, 0.93026483, -0.62317735, 87.59700775, 1211.09814453, 39.34999847, 0.00000000
1, 1.4700, 147, -0.02652457, -0.93433177, -0.37589267, 1.26485300, 0.64848995, 0.26739615, 13.46600056, -65.44289398, 42.22279358, 0.18550147, 0.02820973, -2.79897857, 0.99970037, -0.00162433, -0.00020657, 0.02442363, 0.02701755, 0.93117332, -0.62410223, 87.59700775, 1211.09814453, 39.34999847, 0.00000000
1, 1.4800, 148, -0.02363282, -0.93642843, -0.37359923, 1.24794531, 0.56287211, 0.24806961, 13.46600056, -65.44289398, 42.22279358, 0.18229021, 0.03628400, -2.83356142, 0.99969298, -0.00159812, -0.00027721, 0.02472543, 0.02416288, 0.93313181, -0.62639523, 87.59700775, 1211.09814453, 39.34999847, 0.00000000
1, 1.4900, 149, -0.02270957, -0.93435282, -0.37683573, 0.80042100, 0.42155960, 0.28162464, 13.35630894, -67.81777191, 42.86988068, 0.19015618, 0.03518616, -2.82839632, 0.99969405, -0.00166650, -0.00026601, 0.02468038, 0.02332136, 0.93107933, -0.62315869, 87.59700775, 1211.09814453, 39.34999847, 0.00000000
1, 1.5000, 150, -0.02174914, -0.93239045, -0.38059568, 0.78809351, -0.00539458, 0.14963806, 13.21005249, -67.72981262, 42.54634094, 0.19802846, 0.03377025, -2.82769275, 0.99969411, -0.00173487, -0.00025197, 0.02467423, 0.02235382, 0.92899489, -0.61939836, 87.59700775, 1211.09814453, 39.34999847, 0.00000000
1, 1.5100, 151, -0.02011698, -0.93168563, -0.37731135, 0.95320654, -0.22510859, 0.02146547, 13.06379032, -66.54237366, 42.48923874, 0.20759888, 0.03275552, -2.82945466, 0.99969351, -0.00181815, -0.00024103, 0.02468961, 0.02069545, 0.92811954, -0.62268215, 87.59700775, 1211.09814453, 39.34999847, 0.00000000
1, 1.5200, 152, -0.02196638, -0.93104041, -0.37938842, 0.65041757, -0.39845487, -0.01640907, 13.28317833, -66.54237366, 42.10860443, 0.21419647, 0.03146715, -2.83304572, 0.99969268, -0.00187543, -0.00022831, 0.02472093, 0.02251616, 0.92734396, -0.62060463, 87.59700775, 1211.09814453, 39.34999847, 0.00000000
1, 1.5300, 153, -0.02298517, -0.92900610, -0.37981573, 0.89121199, -0.89033127, -0.25600499, 13.28317833, -66.54237366, 42.10860443, 0.19428045, 0.03624389, -2.88227606, 0.99968219, -0.00170283, -0.00027355, 0.02515044, 0.02354722, 0.92529774, -0.62017727, 87.59700775, 1211.09814453, 39.34999847, 0.00000000
1, 1.5400, 154, -0.02218525, -0.92981893, -0.37775132, 0.94239902, -0.44221774, -0.35221043, 13.24661255, -65.22299194, 42.64150238, 0.20384608, 0.03792267, -2.88742232, 0.99968094, -0.00178666, -0.00028601, 0.02519539, 0.02284002, 0.92631692, -0.62224233, 87.59700775, 1211.09814453, 39.34999847, 0.00000000
1, 1.5500, 155, -0.02420284, -0.93077070, -0.37528795, 0.78228122, -0.52867472, -0.38869473, 13.02722931, -64.91514587, 42.54634094, 0.21182777, 0.03963150, -2.89354205, 0.99967945, -0.00185669, -0.00029907, 0.02524882, 0.02488459, 0.92713386, -0.62470526, 87.59700775, 1211.09814453, 39.34999847, 0.00000000
1, 1.5600, 156, -0.02640691, -0.92842627, -0.37520289, 1.05421853, -0.60974932, -0.54943603, 13.31974411, -66.27849579, 42.69859695, 0.22256204, 0.04254868, -2.90091586, 0.99967766, -0.00195099, -0.00032202, 0.02531323, 0.02712677, 0.92461723, -0.62478960, 87.59700775, 1211.09814453, 39.34999847, 0.00000000
1, 1.5700, 157, -0.02636930, -0.92989326, -0.37690529, 1.01795149, -0.35044667, -0.68449998, 13.17348671, -67.24604034, 42.39408493, 0.23290043, 0.04766236, -2.90638542, 0.99967623, -0.00204233, -0.00036425, 0.02536106, 0.02716722, 0.92589229, -0.62308639, 87.59700775, 1211.09814453, 39.34999847, 0.00000000
1, 1.5800, 158, -0.02753094, -0.93108141, -0.38003409, 0.80185145, -0.19718689, -0.71577328, 13.17348671, -67.24604034, 42.39408493, 0.20462683, 0.05143875, -2.95043421, 0.99966693, -0.00179667, -0.00040277, 0.02574530, 0.02841571, 0.92708957, -0.61995745, 87.59700775, 1211.09814453, 39.34999847, 0.00000000
1, 1.5900, 159, -0.02647207, -0.93060875, -0.37804997, 1.41369605, -0.48457378, -0.68853086, 12.99066353, -67.02614594, 42.96504593, 0.21893024, 0.05610352, -2.95705009, 0.99966514, -0.00192252, -0.00044014, 0.02580314, 0.02742622, 0.92688584, -0.62194264, 87.59700775, 1211.09814453, 39.34999847, 0.00000000
1, 1.6000, 160, -0.02560825, -0.93141693, -0.37623098, 1.39489722, -0.41638988, -0.66946161, 13.17348671, -65.92666626, 42.41311646, 0.23304386, 0.06083938, -2.96297574, 0.99966359, -0.00204674, -0.00047817, 0.02585497, 0.02664011, 0.92744112, -0.62376058, 87.59700775, 1211.09814453, 39.34999847, 0.00000000
1, 1.6100, 161, -0.02701665, -0.93260229, -0.37582409, 1.06807113, -0.21566799, -0.50603676, 12.44219589, -65.04708099, 42.54634094, 0.24382102, 0.06478301, -2.96651840, 0.99966258, -0.00214166, -0.00051007, 0.02588600, 0.02812347, 0.92841005, -0.62416649, 87.59700775, 1211.09814453, 39.34999847, 0.00000000
1, 1.6200, 162, -0.02634240, -0.93393242, -0.37985694, 1.40650201, -0.23301321, -0.33165392, 12.91753292, -66.19053650, 42.54634094, 0.25795567, 0.06703047, -2.96950197, 0.99966156, -0.00226549, -0.00052643, 0.02591213, 0.02750265, 0.92953807, -0.62013268, 87.59700775, 1211.09814453, 39.34999847, 0.00000000
1, 1.6300, 163, -0.02563109, -0.92926294, -0.37753883, 1.56792390, -0.37040195, -0.24714476, 12.91753292, -66.19053650, 43.00310516, 0.23937583, 0.06871031, -3.01332855, 0.99965197, -0.00210399, -0.00054448, 0.02629441, 0.02681383, 0.92473537, -0.62245017, 87.59700775, 1211.09814453, 39.34999847, 0.00000000
1, 1.6400, 164, -0.02671923, -0.92736918, -0.37682945, 1.26003718, -0.30704799, -0.06908758, 12.44219589, -66.01461792, 43.00310516, 0.25204617, 0.06824471, -3.01609683, 0.99965107, -0.00221443, -0.00053745, 0.02631861, 0.02791459, 0.92304778, -0.62316048, 87.59700775, 1211.09814453, 39.34999847, 0.00000000
1, 1.6500, 165, -0.02666375, -0.93056005, -0.37743631, 0.75830311, -0.48394772, 0.01662005, 13.86821175, -65.66278839, 42.88891602, 0.25974074, 0.06634199, -3.02034354, 0.99964994, -0.00228113, -0.00051900, 0.02635565, 0.02784069, 0.92607522, -0.62255287, 87.59700775, 1211.09814453, 39.34999847, 0.00000000
1, 1.6600, 166, -0.02636547, -0.93206143, -0.38061300, 1.19216347, -0.64980668, -0.12882094, 13.83164692, -66.54237366, 42.86988068, 0.27182230, 0.06519938, -3.02653742, 0.99964821, -0.00238629, -0.00050613, 0.02640971, 0.02750887, 0.92740840, -0.61937553, 87.59700775, 1211.09814453, 39.34999847, 0.00000000
1, 1.6700, 167, -0.02468202, -0.93191904, -0.38231662, 1.64208019, -0.60969162, -0.26998070, 13.83164692, -66.63032532, 42.54634094, 0.28841609, 0.06551765, -3.03275633, 0.99964654, -0.00253115, -0.00050494, 0.02646405, 0.02582128, 0.92699391, -0.61767060, 87.59700775, 1211.09814453, 39.34999847, 0.00000000
1, 1.6800, 168, -0.02458625, -0.93357551, -0.37958905, 1.25212872, -0.81546795, -0.46647513, 12.77127552, -67.15808105, 42.47021484, 0.27464089, 0.07322539, -3.08170056, 0.99963534, -0.00241301, -0.00057433, 0.02689111, 0.02576884, 0.92851835, -0.62039745, 87.59700775, 1211.09814453, 39.34999847, 0.00000000
1, 1.6900, 169, -0.02387209, -0.93349272, -0.37638074, 0.93024397, -0.83429331, -0.51862079, 12.77127552, -67.15808105, 42.47021484, 0.28417805, 0.07504697, -3.09110594, 0.99963295, -0.00249668, -0.00058778, 0.02697325, 0.02516966, 0.92860174, -0.62360644, 87.59700775, 1211.09814453, 39.34999847, 0.00000000
1, 1.7000, 170, -0.02342598, -0.93622398, -0.37282631, 1.12663984, -0.71238977, -0.53423727, 13.06379032, -65.79473114, 42.41311646, 0.29566193, 0.07746041, -3.09936047, 0.99963069, -0.00259747, -0.00060594, 0.02704536, 0.02475783, 0.93114388, -0.62715983, 87.59700775, 1211.09814453, 39.34999847, 0.00000000
1, 1.7100, 171, -0.02274309, -0.93316054, -0.37510452, 1.23147047, -0.48941928, -0.47713539, 12.95409870, -68.30153656, 42.48923874, 0.30814517, 0.08014707, -3.10530448, 0.99962902, -0.00270703, -0.00062629, 0.02709734, 0.02412517, 0.92785907, -0.62488043, 87.59700775, 1211.09814453, 39.34999847, 0.00000000
1, 1.7200, 172, -0.02298242, -0.93308598, -0.37621427, 1.07215023, -0.60960865, -0.54948801, 13.31974411, -67.46593475, 43.04117203, 0.31906146, 0.08307768, -3.11267900, 0.99962699, -0.00280299, -0.00064910, 0.02716181, 0.02441861, 0.92758566, -0.62376952, 87.59700775, 1211.09814453, 39.34999847, 0.00000000
1, 1.7300, 173, -0.02178138, -0.93024939, -0.37713465, 0.69929475, -0.64285690, -0.79514241, 13.75851536, -66.89420319, 42.60343552, 0.29406488, 0.09549613, -3.16030192, 0.99961615, -0.00258820, -0.00076228, 0.02757737, 0.02331919, 0.92474216, -0.62284899, 87.59700775, 1211.09814453, 39.34999847, 0.00000000
1, 1.7400, 174, -0.02411162, -0.93118525, -0.37796676, 0.69726849, -0.66258860, -0.63734621, 13.75851536, -66.89420319, 42.60343552, 0.30124739, 0.09905431, -3.16858530, 0.99961382, -0.00265177, -0.00079140, 0.02764976, 0.02581891, 0.92597502, -0.62201822, 87.59700775, 1211.09814453, 39.34999847, 0.00000000
1, 1.7500, 175, -0.02419371, -0.92921066, -0.37561509, 1.09580457, -0.91477925, -0.76691592, 13.61225796, -65.13504028, 42.88891602, 0.31250679, 0.10290526, -3.17957664, 0.99961090, -0.00275100, -0.00082201, 0.02774581, 0.02596786, 0.92383993, -0.62436891, 87.59700775, 1211.09814453, 39.34999847, 0.00000000
1, 1.7600, 176, -0.02541211, -0.92566270, -0.37357229, 1.09353590, -0.93479747, -0.59154677, 13.83164692, -65.57482910, 42.75569153, 0.32371175, 0.10505985, -3.19012856, 0.99960804, -0.00284934, -0.00083783, 0.02783798, 0.02723031, 0.92008495, -0.62641054, 87.59700775, 1211.09814453, 39.34999847, 0.00000000
1, 1.7700, 177, -0.02650425, -0.92462873, -0.37443829, 1.41757035, -1.01745594, -0.62943262, 12.91753292, -65.88268280, 42.03247452, 0.33818534, 0.10726138, -3.20149732, 0.99960494, -0.00297621, -0.00085322, 0.02793732, 0.02836580, 0.91882384, -0.62554312, 87.59700775, 1211.09814453, 39.34999847, 0.00000000
1, 1.7800, 178, -0.02638679, -0.92552245, -0.37567416, 1.54360855, -0.91183525, -0.73306763, 13.24661255, -65.75074005, 42.86988068, 0.33049518, 0.11225434, -3.25165391, 0.99959278, -0.00291074, -0.00089738, 0.02837491, 0.02830401, 0.91955411, -0.62430620, 87.59700775, 1211.09814453, 39.34999847, 0.00000000
1, 1.7900, 179, -0.02582246, -0.92852318, -0.37824330, 1.81286228, -1.04809344, -0.66644293, 13.24661255, -65.75074005, 42.86988068, 0.34893119, 0.11469717, -3.26333475, 0.99958932, -0.00307226, -0.00091381, 0.02847701, 0.02781644, 0.92255807, -0.62173688, 87.59700775, 1211.09814453, 39.34999847, 0.00000000
1, 1.8000, 180, -0.02541410, -0.93061346, -0.37871534, 1.97391748, -1.06455302, -0.63212514, 13.28317833, -67.77378845, 42.24182510, 0.36897126, 0.11676101, -3.27500129, 0.99958593, -0.00324768, -0.00092650, 0.02857900, 0.02743800, 0.92431027, -0.62126267, 87.59700775, 1211.09814453, 39.34999847, 0.00000000
1, 1.8100, 181, -0.02433093, -0.93018430, -0.37586975, 2.07977176, -0.92705977, -0.59440178, 12.95409870, -67.24604034, 42.50827408, 0.39003676, 0.11897250, -3.28522038, 0.99958265, -0.00343207, -0.00094023, 0.02866837, 0.02639594, 0.92351556, -0.62410587, 87.59700775, 1211.09814453, 39.34999847, 0.00000000
1, 1.8200, 182, -0.02526710, -0.93194395, -0.37533873, 2.03034759, -1.16504169, -0.75745863, 13.42943573, -65.35493469, 42.10860443, 0.41067517, 0.12186108, -3.29825521, 0.99957877, -0.00361293, -0.00095985, 0.02878233, 0.02737701, 0.92491424, -0.62463433, 87.59700775, 1211.09814453, 39.34999847, 0.00000000
1, 1.8300, 183, -0.02462726, -0.93346453, -0.37497345, 2.24521399, -1.12904811, -0.75735939, 13.06379032, -65.57482910, 41.91828537, 0.41414270, 0.12646183, -3.35108995, 0.99956524, -0.00364479, -0.00099743, 0.02924338, 0.02679152, 0.92613328, -0.62499732, 87.59700775, 1211.09814453, 39.34999847, 0.00000000
1, 1.8400, 184, -0.02399511, -0.93537629, -0.37298030, 2.35034084, -0.99241453, -0.66691697, 13.06379032, -65.57482910, 41.91828537, 0.43792796, 0.12912591, -3.36209869, 0.99956167, -0.00385304, -0.00101423, 0.02933970, 0.02623554, 0.92788988, -0.62698919, 87.59700775, 1211.09814453, 39.34999847, 0.00000000
1, 1.8500, 185, -0.02449007, -0.93468803, -0.37064236, 2.25976133, -0.83816981, -0.69855362, 13.83164692, -67.11410522, 42.77472687, 0.46079123, 0.13264039, -3.37180901, 0.99955827, -0.00405346, -0.00103869, 0.02942472, 0.02678211, 0.92678910, -0.62932384, 87.59700775, 1211.09814453, 39.34999847, 0.00000000
1, 1.8600, 186, -0.02374016, -0.93494576, -0.37100524, 2.04182363, -0.61773163, -0.64051729, 13.68538952, -68.38949585, 42.26086044, 0.48140642, 0.13640517, -3.37931228, 0.99955553, -0.00423432, -0.00106596, 0.02949050, 0.02609478, 0.92667639, -0.62895781, 87.59700775, 1211.09814453, 39.34999847, 0.00000000
1, 1.8700, 187, -0.02443712, -0.93630946, -0.37022263, 1.97047985, -0.68719208, -0.62418103, 14.59950256, -66.76226807, 42.86988068, 0.50132459, 0.13977370, -3.38741517, 0.99955267, -0.00440900, -0.00108990, 0.02956149, 0.02685930, 0.92769259, -0.62973732, 87.59700775, 1211.09814453, 39.34999847, 0.00000000
1, 1.8800, 188, -0.02701212, -0.93730652, -0.37127328, 2.00575566, -0.75695449, -0.53786421, 13.53913212, -66.27849579, 42.71763229, 0.50428510, 0.13951735, -3.43640733, 0.99953985, -0.00443523, -0.00108501, 0.02998885, 0.02947077, 0.92841524, -0.62868410, 87.59700775, 1211.09814453, 39.34999847, 0.00000000
1, 1.8900, 189, -0.02652955, -0.93638128, -0.37150753, 2.00929570, -1.06484473, -0.59708297, 13.53913212, -66.27849579, 42.71763229, 0.52467555, 0.14129119, -3.44792604, 0.99953598, -0.00461366, -0.00109468, 0.03008959, 0.02898384, 0.92735523, -0.62844872, 87.59700775, 1211.09814453, 39.34999847, 0.00000000
1, 1.9000, 190, -0.02794062, -0.93402022, -0.37372133, 1.77587271, -1.03236806, -0.59568590, 13.06379032, -65.44289398, 42.29892349, 0.54272777, 0.14316778, -3.45921016, 0.99953228, -0.00477172, -0.00110584, 0.03018826, 0.03042692, 0.92466742, -0.62623185, 87.59700775, 1211.09814453, 39.34999847, 0.00000000
1, 1.9100, 191, -0.02839043, -0.93144804, -0.37290782, 1.68788028, -1.13512850, -0.65031201, 13.50256634, -65.70676422, 42.54634094, 0.55992001, 0.14520176, -3.47166562, 0.99952823, -0.00492234, -0.00111852, 0.03029716, 0.03090936, 0.92178828, -0.62704235, 87.59700775, 1211.09814453, 39.34999847, 0.00000000
1, 1.9200, 192, -0.02997681, -0.93073374, -0.37328926, 2.10086131, -1.16591179, -0.66980124, 14.08759975, -65.22299194, 42.56536865, 0.58124828, 0.14730132, -3.48436832, 0.99952388, -0.00510906, -0.00113063, 0.03040826, 0.03253555, 0.92072773, -0.62665737, 87.59700775, 1211.09814453, 39.34999847, 0.00000000
1, 1.9300, 193, -0.02768190, -0.92927295, -0.37291527, 2.15469360, -1.30414450, -0.58498043, 13.79508114, -68.30153656, 42.14667130, 0.58175910, 0.14695083, -3.53641057, 0.99950999, -0.00511393, -0.00112511, 0.03086218, 0.03025517, 0.91898614, -0.62702847, 87.59700775, 1211.09814453, 39.34999847, 0.00000000
1, 1.9400, 194, -0.02713854, -0.92749655, -0.37095821, 2.22246456, -1.03085673, -0.47397247, 13.97790337, -67.11410522, 42.60343552, 0.60424525, 0.14770930, -3.54711318, 0.99950606, -0.00531037, -0.00112517, 0.03095579, 0.02971076, 0.91710329, -0.62898445, 87.59700775, 1211.09814453, 39.34999847, 0.00000000
1, 1.9500, 195, -0.02701500, -0.92932045, -0.37118530, 2.58064842, -1.16727114, -0.35488823, 13.97790337, -67.11410522, 42.60343552, 0.63033444, 0.14687259, -3.55857921, 0.99950171, -0.00553781, -0.00111027, 0.03105601, 0.02958639, 0.91849303, -0.62875271, 87.59700775, 1211.09814453, 39.34999847, 0.00000000
1, 1.9600, 196, -0.02565601, -0.93087929, -0.37161237, 2.68514991, -0.96202648, -0.26300147, 14.23385715, -66.36645508, 42.69859695, 0.65742791, 0.14590983, -3.56777692, 0.99949789, -0.00577396, -0.00109407, 0.03113645, 0.02820916, 0.91958809, -0.62832057, 87.59700775, 1211.09814453, 39.34999847, 0.00000000
1, 1.9700, 197, -0.02548502, -0.93326300, -0.36910459, 2.89788795, -1.01523519, -0.05383135, 13.97790337, -66.85022736, 42.83182144, 0.68663555, 0.14280510, -3.57666111, 0.99949408, -0.00602796, -0.00105859, 0.03121406, 0.02799631, 0.92148048, -0.63082290, 87.59700775, 1211.09814453, 39.34999847, 0.00000000
1, 1.9800, 198, -0.02610565, -0.93431121, -0.36696509, 2.91488171, -0.91217792, -0.05171669, 13.79508114, -65.44289398, 42.71763229, 0.69868332, 0.13986155, -3.62421489, 0.99948037, -0.00613266, -0.00102709, 0.03162879, 0.02857043, 0.92208630, -0.63295710, 87.59700775, 1211.09814453, 39.34999847, 0.00000000
1, 1.9900, 199, -0.02728224, -0.93577862, -0.36781922, 3.19828463, -0.74069160, 0.09164787, 13.10035515, -65.66278839, 42.79375458, 0.73081964, 0.13637772, -3.62994027, 0.99947709, -0.00641205, -0.00098751, 0.03167882, 0.02968553, 0.92323577, -0.63209927, 87.59700775, 1211.09814453, 39.34999847, 0.00000000
1, 2.0000, 200, -0.02701162, -0.93635422, -0.36582044, 3.03604913, -0.62160176, 0.07706971, 13.10035515, -65.66278839, 42.79375458, 0.76131523, 0.13344778, -3.63465905, 0.99947405, -0.00667726, -0.00095325, 0.03172007, 0.02935958, 0.92326224, -0.63409108, 87.59700775, 1211.09814453, 39.34999847, 0.00000000
1, 2.0100, 201, -0.02825734, -0.93708295, -0.36719307, 2.75026989, -0.63985938, 0.00724709, 14.01446915, -68.08164215, 42.60343552, 0.78896600, 0.13111377, -3.63986659, 0.99947107, -0.00691783, -0.00092492, 0.03176558, 0.03055906, 0.92348957, -0.63271189, 87.59700775, 1211.09814453, 39.34999847, 0.00000000
1, 2.0200, 202, -0.02822036, -0.93808031, -0.36969206, 2.58931708, -0.55392885, -0.07834538, 13.64882374, -65.48686981, 42.64150238, 0.81498337, 0.12988682, -3.64462423, 0.99946809, -0.00714445, -0.00090671, 0.03180721, 0.03049480, 0.92402565, -0.63020653, 87.59700775, 1211.09814453, 39.34999847, 0.00000000
1, 2.0300, 203, -0.02922788, -0.93652213, -0.36692274, 2.53833008, -0.62038308, -0.23779128, 13.13692093, -65.53085327, 42.35601807, 0.82026619, 0.12633218, -3.69058204, 0.99945498, -0.00718989, -0.00087136, 0.03220787, 0.03148281, 0.92210507, -0.63297081, 87.59700775, 1211.09814453, 39.34999847, 0.00000000
1, 2.0400, 204, -0.02901243, -0.93696535, -0.36960042, 2.37761974, -0.53416610, -0.34095678, 13.61225796, -66.05860138, 42.31795502, 0.84420115, 0.12763141, -3.69613552, 0.99945194, -0.00739906, -0.00087560, 0.03225657, 0.03123400, 0.92238826, -0.63029087, 87.59700775, 1211.09814453, 39.34999847, 0.00000000
1, 2.0500, 205, -0.03103106, -0.93360949, -0.36772153, 2.87928367, -0.32267430, -0.44351530, 13.61225796, -66.05860138, 42.31795502, 0.87309664, 0.13063888, -3.69993138, 0.99944890, -0.00765196, -0.00089345, 0.03229010, 0.03328605, 0.91856802, -0.63216275, 87.59700775, 1211.09814453, 39.34999847, 0.00000000
1, 2.0600, 206, -0.02927483, -0.93189788, -0.36633629, 2.98444295, -0.08197793, -0.42119843, 13.57569790, -65.79473114, 42.47021484, 0.90298438, 0.13428158, -3.70136666, 0.99944639, -0.00791367, -0.00091670, 0.03230309, 0.03159073, 0.91631830, -0.63353968, 87.59700775, 1211.09814453, 39.34999847, 0.00000000
1, 2.0700, 207, -0.02975515, -0.93036592, -0.36728436, 3.00237465, -0.08183724, -0.42125028, 13.94133854, -67.11410522, 42.85084915, 0.93305093, 0.13793203, -3.70278907, 0.99944383, -0.00817694, -0.00093996, 0.03231600, 0.03214549, 0.91428554, -0.63258350, 87.59700775, 1211.09814453, 39.34999847, 0.00000000
1, 2.0800, 208, -0.02828073, -0.92844993, -0.36953139, 3.42848063, 0.28060126, -0.34462109, 13.83164692, -66.58635712, 42.67956161, 0.94226909, 0.14019015, -3.73961043, 0.99943280, -0.00825829, -0.00095440, 0.03263738, 0.03072028, 0.91190922, -0.63032889, 87.59700775, 1211.09814453, 39.34999847, 0.00000000
1, 2.0900, 209, -0.02647845, -0.92749900, -0.37215096, 3.89438915, 0.31856465, -0.34524861, 13.13692093, -65.26697540, 42.39408493, 0.98115295, 0.14451838, -3.73677635, 0.99943066, -0.00859863, -0.00098129, 0.03261331, 0.02897191, 0.91064185, -0.62770379, 87.59700775, 1211.09814453, 39.34999847, 0.00000000
1, 2.1000, 210, -0.02667371, -0.92531794, -0.37142980, 4.53720951, 0.16438302, -0.05162572, 13.13692093, -65.26697540, 42.39408493, 1.02646995, 0.14555813, -3.73417664, 0.99942791, -0.00899414, -0.00097766, 0.03259110, 0.02920981, 0.90770191, -0.62841177, 87.59700775, 1211.09814453, 39.34999847, 0.00000000
1, 2.1100, 211, -0.02712748, -0.92511201, -0.36940256, 4.46439457, 0.04117191, 0.10421146, 13.35630894, -65.13504028, 42.45117950, 1.07108700, 0.14470129, -3.73221421, 0.99942482, -0.00938301, -0.00095766, 0.03257429, 0.02965814, 0.90670568, -0.63042480, 87.59700775, 1211.09814453, 39.34999847, 0.00000000
1, 2.1200, 212, -0.02604578, -0.92588800, -0.37142703, 4.19211197, 0.05248924, 0.33380049, 13.28317833, -66.58635712, 42.85084915, 1.11295116, 0.14173234, -3.72942495, 0.99942219, -0.00974727, -0.00092010, 0.03255006, 0.02854107, 0.90673888, -0.62838650, 87.59700775, 1211.09814453, 39.34999847, 0.00000000
1, 2.1300, 213, -0.02659557, -0.93120152, -0.37334800, 4.49512720, 0.17409065, 0.38816473, 14.12416077, -65.70676422, 42.79375458, 1.13240218, 0.13975032, -3.76425982, 0.99941063, -0.00991662, -0.00089428, 0.03285387, 0.02904001, 0.91141605, -0.62645328, 87.59700775, 1211.09814453, 39.34999847, 0.00000000
1, 2.1400, 214, -0.02673297, -0.93208134, -0.37375578, 5.08768845, -0.04568550, 0.46962264, 13.31974411, -66.49839020, 42.98407745, 1.18323815, 0.13515782, -3.76167297, 0.99940687, -0.01035865, -0.00083988, 0.03283128, 0.02912851, 0.91176379, -0.62603492, 87.59700775, 1211.09814453, 39.34999847, 0.00000000
1, 2.1500, 215, -0.02764207, -0.93453836, -0.37147570, 4.75018311, -0.42600605, 0.48023784, 13.31974411, -66.49839020, 42.98407745, 1.23078680, 0.12914792, -3.76272178, 0.99940234, -0.01077163, -0.00077375, 0.03284022, 0.02993781, 0.91336703, -0.62829757, 87.59700775, 1211.09814453, 39.34999847, 0.00000000
1, 2.1600, 216, -0.02761722, -0.93703377, -0.36977029, 4.82111788, -0.63442868, 0.66900057, 13.28317833, -65.35493469, 42.64150238, 1.27907014, 0.12065248, -3.76505566, 0.99939716, -0.01119031, -0.00068559, 0.03286007, 0.02977910, 0.91502929, -0.62998521, 87.59700775, 1211.09814453, 39.34999847, 0.00000000
1, 2.1700, 217, -0.02792591, -0.94083941, -0.36644718, 4.92774773, -0.33998156, 0.55181640, 13.02722931, -65.00309753, 42.75569153, 1.32835448, 0.11427409, -3.76500344, 0.99939227, -0.01161831, -0.00061583, 0.03285926, 0.02996502, 0.91797990, -0.63328934, 87.59700775, 1211.09814453, 39.34999847, 0.00000000
1, 2.1800, 218, -0.02804167, -0.94161081, -0.36596167, 4.90900230, -0.35842121, 0.62179935, 13.75851536, -65.39891052, 42.86988068, 1.35850775, 0.10751142, -3.80397367, 0.99937809, -0.01187954, -0.00054417, 0.03319859, 0.02996050, 0.91797394, -0.63375705, 87.59700775, 1211.09814453, 39.34999847, 0.00000000
1, 2.1900, 219, -0.02682009, -0.94341689, -0.36433056, 4.71024656, -0.27506456, 0.67689502, 13.97790337, -65.53085327, 43.23149109, 1.40560341, 0.10017983, -3.80295110, 0.99937344, -0.01228814, -0.00046669, 0.03318911, 0.02861670, 0.91918969, -0.63537425, 87.59700775, 1211.09814453, 39.34999847, 0.00000000
1, 2.2000, 220, -0.02497726, -0.94436187, -0.36456335, 3.90385890, -0.12472807, 0.54189652, 13.97790337, -65.53085327, 43.23149109, 1.44461012, 0.09463447, -3.80120182, 0.99936980, -0.01262671, -0.00040723, 0.03317341, 0.02666091, 0.91939759, -0.63512355, 87.59700775, 1211.09814453, 39.34999847, 0.00000000
1, 2.2100, 221, -0.02282842, -0.94788730, -0.36324209, 3.29370070, -0.13008448, 0.57880747, 13.64882374, -68.08164215, 43.02214050, 1.47750676, 0.08872688, -3.79954886, 0.99936670, -0.01291189, -0.00034637, 0.03315845, 0.02441062, 0.92230844, -0.63642943, 87.59700775, 1211.09814453, 39.34999847, 0.00000000
1, 2.2200, 222, -0.02145419, -0.94909865, -0.36246657, 3.02722216, -0.16392137, 0.42070666, 13.75851536, -65.31095886, 42.56536865, 1.50775647, 0.08419667, -3.79884291, 0.99936354, -0.01317439, -0.00029819, 0.03315187, 0.02295152, 0.92298990, -0.63719141, 87.59700775, 1211.09814453, 39.34999847, 0.00000000
1, 2.2300, 223, -0.02194517, -0.94569868, -0.36198604, 2.70713806, -0.11127024, 0.19427505, 13.35630894, -67.29001617, 43.23149109, 1.50301135, 0.09006144, -3.83669949, 0.99935299, -0.01313482, -0.00034637, 0.03348267, 0.02342202, 0.91921520, -0.63766205, 87.59700775, 1211.09814453, 39.34999847, 0.00000000
1, 2.2400, 224, -0.02206372, -0.94462359, -0.36459494, 2.15205669, -0.14936395, 0.16001606, 12.69814968, -67.29001617, 43.02214050, 1.52454603, 0.08803372, -3.83697200, 0.99935043, -0.01332203, -0.00032236, 0.03348488, 0.02361288, 0.91815573, -0.63505352, 87.59700775, 1211.09814453, 39.34999847, 0.00000000
1, 2.2500, 225, -0.02288331, -0.94180292, -0.36442983, 1.90505111, -0.16390152, -0.12078675, 13.06379032, -65.97064209, 42.27989578, 1.54364204, 0.08859928, -3.83840799, 0.99934781, -0.01348874, -0.00032154, 0.03349751, 0.02442815, 0.91498530, -0.63520938, 87.59700775, 1211.09814453, 39.34999847, 0.00000000
1, 2.2600, 226, -0.02342396, -0.93995994, -0.36977622, 1.53299832, -0.47359997, -0.24920747, 13.06379032, -65.97064209, 42.27989578, 1.55910754, 0.08932431, -3.84328604, 0.99934447, -0.01362384, -0.00032277, 0.03354018, 0.02497349, 0.91285634, -0.62985522, 87.59700775, 1211.09814453, 39.34999847, 0.00000000
1, 2.2700, 227, -0.02159156, -0.93626487, -0.36646828, 1.73672819, -0.67244130, -0.58799911, 13.21005249, -66.49839020, 42.56536865, 1.57668090, 0.09255791, -3.85113358, 0.99934006, -0.01377806, -0.00034488, 0.03360906, 0.02318098, 0.90886629, -0.63315505, 87.59700775, 1211.09814453, 39.34999847, 0.00000000
1, 2.2800, 228, -0.02307202, -0.93064505, -0.36656722, 1.84717917, -0.82425284, -0.69699854, 13.79508114, -66.58635712, 43.13633347, 1.56079960, 0.09830183, -3.89912271, 0.99932772, -0.01364141, -0.00039392, 0.03402820, 0.02473541, 0.90307683, -0.63305128, 87.59700775, 1211.09814453, 39.34999847, 0.00000000
1, 2.2900, 229, -0.02427105, -0.92916822, -0.36660051, 2.15565848, -1.06028068, -0.80837452, 13.83164692, -67.02614594, 42.71763229, 1.58266604, 0.10229144, -3.91124892, 0.99932146, -0.01383333, -0.00042075, 0.03413450, 0.02602895, 0.90169376, -0.63302040, 87.59700775, 1211.09814453, 39.34999847, 0.00000000
1, 2.3000, 230, -0.02479497, -0.93165636, -0.36588562, 2.42638373, -1.14278805, -0.88125062, 13.72195435, -67.02614594, 43.00310516, 1.60728776, 0.10667994, -3.92431736, 0.99931455, -0.01404941, -0.00045009, 0.03424909, 0.02662959, 0.90377235, -0.63372386, 87.59700775, 1211.09814453, 39.34999847, 0.00000000
1, 2.3100, 231, -0.02552567, -0.93271196, -0.36534733, 2.67891765, -1.27775407, -0.90243924, 13.72195435, -67.02614594, 43.00310516, 1.63444746, 0.11082359, -3.93865776, 0.99930686, -0.01428756, -0.00047632, 0.03437477, 0.02743310, 0.90437275, -0.63424921, 87.59700775, 1211.09814453, 39.34999847, 0.00000000
1, 2.3200, 232, -0.02601266, -0.93097287, -0.36589402, 2.71195698, -1.26347196, -0.70887870, 13.94133854, -65.22299194, 42.79375458, 1.66193247, 0.11319792, -3.95220876, 0.99929929, -0.01452801, -0.00048706, 0.03449335, 0.02797291, 0.90214562, -0.63368845, 87.59700775, 1211.09814453, 39.34999847, 0.00000000
1, 2.3300, 233, -0.02610585, -0.93298846, -0.36575565, 2.53235006, -1.42125964, -0.58859825, 13.42943573, -65.83870697, 42.88891602, 1.65482664, 0.11229392, -4.00538731, 0.99928397, -0.01446600, -0.00047460, 0.03495695, 0.02808844, 0.90384346, -0.63381761, 87.59700775, 1211.09814453, 39.34999847, 0.00000000
1, 2.3400, 234, -0.02808951, -0.93434697, -0.36652550, 2.40674329, -1.43968368, -0.57102293, 13.86821175, -65.39891052, 42.92698288, 1.67926347, 0.11278112, -4.02021217, 0.99927640, -0.01467930, -0.00046950, 0.03508639, 0.03005531, 0.90520179, -0.63304776, 87.59700775, 1211.09814453, 39.34999847, 0.00000000
1, 2.3500, 235, -0.02795418, -0.93693328, -0.36672717, 2.65776873, -1.48974562, -0.53768694, 13.13692093, -66.54237366, 42.79375458, 1.70624590, 0.11279042, -4.03531933, 0.99926829, -0.01491466, -0.00045935, 0.03521824, 0.02992578, 0.90733939, -0.63283288, 87.59700775, 1211.09814453, 39.34999847, 0.00000000
1, 2.3600, 236, -0.02811841, -0.93899852, -0.36542073, 2.64136243, -1.52275908, -0.62622237, 13.13692093, -66.54237366, 42.79375458, 1.73305988, 0.11353091, -4.05104399, 0.99925995, -0.01514878, -0.00045549, 0.03535557, 0.03009305, 0.90892482, -0.63412499, 87.59700775, 1211.09814453, 39.34999847, 0.00000000
1, 2.3700, 237, -0.02980204, -0.94247794, -0.36478716, 2.49456334, -1.37180185, -0.48197305, 14.05103493, -66.63032532, 42.92698288, 1.75837564, 0.11342455, -4.06489944, 0.99925226, -0.01536955, -0.00044489, 0.03547647, 0.03178241, 0.91195667, -0.63474500, 87.59700775, 1211.09814453, 39.34999847, 0.00000000
1, 2.3800, 238, -0.02833251, -0.94405985, -0.36361325, 2.16839981, -1.37834609, -0.23501627, 13.17348671, -66.05860138, 43.21246338, 1.74915147, 0.10832388, -4.11666632, 0.99923742, -0.01528772, -0.00039636, 0.03592717, 0.03027537, 0.91326863, -0.63591069, 87.59700775, 1211.09814453, 39.34999847, 0.00000000
1, 2.3900, 239, -0.02881249, -0.94239682, -0.36120662, 1.96891677, -1.29584897, -0.12720163, 13.39287472, -68.30153656, 43.34568787, 1.76915169, 0.10514481, -4.12875843, 0.99923098, -0.01546117, -0.00036074, 0.03603226, 0.03067167, 0.91165125, -0.63831890, 87.59700775, 1211.09814453, 39.34999847, 0.00000000
1, 2.4000, 240, -0.02887535, -0.94173563, -0.35867956, 1.85545301, -1.21694672, 0.24394880, 13.39287472, -67.86174774, 43.26955795, 1.78796482, 0.09873902, -4.13888931, 0.99922532, -0.01562323, -0.00029758, 0.03611979, 0.03064069, 0.91065723, -0.64083588, 87.59700775, 1211.09814453, 39.34999847, 0.00000000
1, 2.4100, 241, -0.02866648, -0.94215989, -0.36061871, 1.72899437, -1.11501491, 0.24647877, 13.39287472, -67.86174774, 43.26955795, 1.80549753, 0.09265554, -4.14808130, 0.99922007, -0.01577421, -0.00023774, 0.03619915, 0.03032815, 0.91076285, -0.63888693, 87.59700775, 1211.09814453, 39.34999847, 0.00000000
1, 2.4200, 242, -0.02952402, -0.94265813, -0.36075473, 1.65439057, -1.01495349, 0.38943714, 13.28317833, -66.89420319, 43.23149109, 1.82223260, 0.08556763, -4.15588665, 0.99921542, -0.01591792, -0.00016957, 0.03626626, 0.03106112, 0.91096765, -0.63874185, 87.59700775, 1211.09814453, 39.34999847, 0.00000000
1, 2.4300, 243, -0.02888654, -0.94396347, -0.36051100, 1.31063569, -0.70916325, 0.41449615, 13.10035515, -66.10257721, 43.02214050, 1.78813779, 0.07552776, -4.19969416, 0.99920624, -0.01561747, -0.00008684, 0.03664684, 0.03029549, 0.91222447, -0.63898414, 87.59700775, 1211.09814453, 39.34999847, 0.00000000
1, 2.4400, 244, -0.02750950, -0.94360024, -0.36298558, 1.16806686, -0.72658181, 0.36183122, 13.10035515, -65.97064209, 43.06019974, 1.79996061, 0.06966403, -4.20500040, 0.99920303, -0.01571869, -0.00003120, 0.03669232, 0.02876304, 0.91226602, -0.63652259, 87.59700775, 1211.09814453, 39.34999847, 0.00000000
1, 2.4500, 245, -0.02549681, -0.94149154, -0.36337924, 0.62654179, -0.28425714, 0.33763099, 14.12416077, -67.86174774, 43.28859329, 1.80625439, 0.06553027, -4.20636463, 0.99920171, -0.01577225, 0.00000705, 0.03670364, 0.02666957, 0.91000962, -0.63612437, 87.59700775, 1211.09814453, 39.34999847, 0.00000000
1, 2.4600, 246, -0.02456331, -0.94237828, -0.36232927, 0.24833021, -0.13312317, 0.35954398, 14.12416077, -67.86174774, 43.28859329, 1.80873573, 0.06169212, -4.20635319, 0.99920148, -0.01579266, 0.00004131, 0.03670302, 0.02566300, 0.91082650, -0.63717222, 87.59700775, 1211.09814453, 39.34999847, 0.00000000
1, 2.4700, 247, -0.02579022, -0.94117856, -0.36221099, -0.07754719, 0.25943136, 0.33363745, 13.57569790, -67.42195129, 43.19342804, 1.80785418, 0.05942481, -4.20280743, 0.99920273, -0.01578425, 0.00006031, 0.03667178, 0.02684335, 0.90961981, -0.63729036, 87.59700775, 1211.09814453, 39.34999847, 0.00000000
1, 2.4800, 248, -0.02412521, -0.94279712, -0.35848144, -0.04302027, 0.37949565, 0.35363433, 13.97790337, -67.11410522, 43.07923508, 1.72291565, 0.06640399, -4.23582363, 0.99920344, -0.01504584, -0.00002340, 0.03696063, 0.02517731, 0.91162765, -0.64103192, 87.59700775, 1211.09814453, 39.34999847, 0.00000000
1, 2.4900, 249, -0.02542656, -0.94300789, -0.35791257, -0.20326190, 0.41425425, 0.24938560, 13.83164692, -65.53085327, 42.81278610, 1.72076678, 0.06545315, -4.23113155, 0.99920529, -0.01502680, -0.00001642, 0.03691959, 0.02657461, 0.91296434, -0.64163530, 87.59700775, 1211.09814453, 39.34999847, 0.00000000
1, 2.5000, 250, -0.02645597, -0.94250506, -0.35788944, -0.34930083, 0.67013371, 0.27279028, 13.68538952, -66.10257721, 42.71763229, 1.71707952, 0.06514671, -4.22399950, 0.99920809, -0.01499455, -0.00001587, 0.03685736, 0.02759083, 0.91251123, -0.64165998, 87.59700775, 1211.09814453, 39.34999847, 0.00000000
1, 2.5100, 251, -0.02713543, -0.94106895, -0.36071724, -0.44037020, 1.06652308, 0.12319781, 14.05103493, -68.21358490, 43.40278244, 1.71241462, 0.06758913, -4.21367598, 0.99921203, -0.01495465, -0.00004001, 0.03676766, 0.02829632, 0.91115922, -0.63883471, 87.59700775, 1211.09814453, 39.34999847, 0.00000000
1, 2.5200, 252, -0.02711759, -0.94002604, -0.36110958, -0.36784625, 1.03335333, 0.08712192, 14.05103493, -68.21358490, 43.40278244, 1.70847464, 0.07025901, -4.20375919, 0.99921572, -0.01492115, -0.00006585, 0.03668153, 0.02832093, 0.91018051, -0.63844419, 87.59700775, 1211.09814453, 39.34999847, 0.00000000
1, 2.5300, 253, -0.02562433, -0.93985862, -0.35869214, -0.56075585, 0.69018322, -0.00739407, 13.57569790, -66.49839020, 42.81278610, 1.63700747, 0.07783905, -4.23574305, 0.99921441, -0.01430043, -0.00015083, 0.03696132, 0.02689765, 0.91039276, -0.64087272, 87.59700775, 1211.09814453, 39.34999847, 0.00000000
1, 2.5400, 254, -0.02276485, -0.93831271, -0.35935748, -0.46698657, 0.40100875, -0.11923039, 13.79508114, -67.81777191, 42.83182144, 1.63226473, 0.08032031, -4.23249865, 0.99921596, -0.01425987, -0.00017440, 0.03693333, 0.02414866, 0.90979600, -0.64023495, 87.59700775, 1211.09814453, 39.34999847, 0.00000000
1, 2.5500, 255, -0.02166989, -0.94053870, -0.36025375, -0.30395359, 0.24818651, -0.14052045, 13.21005249, -66.14656067, 43.28859329, 1.62917507, 0.08248425, -4.23072243, 0.99921691, -0.01423362, -0.00019448, 0.03691810, 0.02309520, 0.91208577, -0.63934034, 87.59700775, 1211.09814453, 39.34999847, 0.00000000
1, 2.5600, 256, -0.01877668, -0.94147140, -0.36029041, -0.62309545, -0.04479675, -0.21601675, 12.99066353, -66.85022736, 43.19342804, 1.62298155, 0.08436857, -4.23204279, 0.99921727, -0.01418023, -0.00021275, 0.03692984, 0.02023562, 0.91310686, -0.63930625, 87.59700775, 1211.09814453, 39.34999847, 0.00000000
1, 2.5700, 257, -0.02015305, -0.94164509, -0.35824519, -0.85734832, -0.08265051, -0.11062595, 12.99066353, -66.85022736, 43.19342804, 1.61443770, 0.08513673, -4.23343563, 0.99921793, -0.01410598, -0.00022203, 0.03694206, 0.02163902, 0.91341060, -0.64135498, 87.59700775, 1211.09814453, 39.34999847, 0.00000000
1, 2.5800, 258, -0.02012130, -0.94375080, -0.35807532, -1.57343125, -0.19090804, -0.12828915, 13.46600056, -65.35493469, 43.19342804, 1.56882942, 0.09460881, -4.27498627, 0.99920988, -0.01371145, -0.00031435, 0.03730541, 0.02164959, 0.91586041, -0.64153445, 87.59700775, 1211.09814453, 39.34999847, 0.00000000
1, 2.5900, 259, -0.01797970, -0.94681907, -0.35675091, -2.34065223, -0.59118479, -0.15193519, 12.84440613, -66.05860138, 43.00310516, 1.54558539, 0.09404530, -4.28169966, 0.99921036, -0.01350860, -0.00031622, 0.03736382, 0.01962227, 0.91968870, -0.64287972, 87.59700775, 1211.09814453, 39.34999847, 0.00000000
1, 2.6000, 260, -0.02001897, -0.95011270, -0.35467374, -2.51669168, -0.71008205, -0.31210095, 13.68538952, -67.42195129, 43.11729813, 1.52062213, 0.09457781, -4.29012203, 0.99921054, -0.01329113, -0.00032802, 0.03743725, 0.02166224, 0.92340797, -0.64496827, 87.59700775, 1211.09814453, 39.34999847, 0.00000000
1, 2.6100, 261, -0.02282046, -0.95116782, -0.35809642, -3.10448337, -0.74473196, -0.57470548, 13.72195435, -65.57482910, 43.11729813, 1.48982656, 0.09746052, -4.29992151, 0.99921089, -0.01302357, -0.00036211, 0.03752294, 0.02450095, 0.92495739, -0.64155853, 87.59700775, 1211.09814453, 39.34999847, 0.00000000
1, 2.6200, 262, -0.02077421, -0.95207655, -0.36048055, -4.33146381, -1.15836895, -1.05426168, 13.72195435, -65.57482910, 43.11729813, 1.44689727, 0.10344679, -4.31558371, 0.99921048, -0.01265125, -0.00042663, 0.03766003, 0.02253230, 0.92652678, -0.63919145, 87.59700775, 1211.09814453, 39.34999847, 0.00000000
1, 2.6300, 263, -0.01199914, -0.95753598, -0.35596240, -5.77258301, -1.60714006, -1.58663619, 13.68538952, -65.61880493, 42.88891602, 1.38255429, 0.12181126, -4.37441969, 0.99919772, -0.01209654, -0.00060170, 0.03817474, 0.01394222, 0.93293095, -0.64373291, 87.59700775, 1211.09814453, 39.34999847, 0.00000000
1, 2.6400, 264, -0.00347939, -0.96480763, -0.35081393, -6.05246019, -1.35836351, -2.24852514, 13.31974411, -65.61880493, 42.92698288, 1.32255900, 0.13830683, -4.39653349, 0.99919629, -0.01157903, -0.00076329, 0.03836891, 0.00577411, 0.94133747, -0.64890796, 87.59700775, 1211.09814453, 39.34999847, 0.00000000
1, 2.6500, 265, -0.00180294, -0.97232467, -0.35204950, -6.21174145, -0.83702302, -2.72926998, 13.64882374, -66.27849579, 42.67956161, 1.26090336, 0.16109154, -4.41547203, 0.99919575, -0.01104921, -0.00098079, 0.03853580, 0.00445468, 0.94990683, -0.64769566, 87.59700775, 1211.09814453, 39.34999847, 0.00000000
1, 2.6600, 266, -0.00432714, -0.97289741, -0.34894276, -7.06669664, -0.50755745, -3.35254645, 13.94133854, -66.80625153, 42.92698288, 1.19067562, 0.19084042, -4.43372822, 0.99919564, -0.01044704, -0.00126214, 0.03869706, 0.00744931, 0.95164037, -0.65082633, 87.59700775, 1211.09814453, 39.34999847, 0.00000000
1, 2.6700, 267, -0.00432589, -0.97166610, -0.34773394, -8.62011433, -0.25190312, -3.99281549, 13.94133854, -66.80625153, 42.92698288, 1.10488570, 0.22746795, -4.45227480, 0.99919623, -0.00971160, -0.00160892, 0.03886088, 0.00804990, 0.95179135, -0.65206146, 87.59700775, 1211.09814453, 39.34999847, 0.00000000
1, 2.6800, 268, -0.00090648, -0.96698940, -0.34726310, -9.73121357, -0.22517391, -4.05916739, 13.57569790, -65.61880493, 42.50827408, 1.00457525, 0.27151772, -4.50644970, 0.99918479, -0.00885281, -0.00202285, 0.03933518, 0.00531284, 0.94876873, -0.65256101, 87.59700775, 1211.09814453, 39.34999847, 0.00000000
1, 2.6900, 269, 0.00351471, -0.96158570, -0.34948370, -10.03825951, 0.20325962, -4.17226887, 13.64882374, -66.93818665, 42.96504593, 0.90452272, 0.31135774, -4.52187204, 0.99918592, -0.00799438, -0.00240351, 0.03947058, 0.00165654, 0.94514143, -0.65036756, 87.59700775, 1211.09814453, 39.34999847, 0.00000000
1, 2.7000, 270, 0.00566440, -0.95816338, -0.35386634, -10.07855129, 0.76987940, -4.21296787, 14.92858315, -65.57482910, 42.50827408, 0.80394566, 0.35354817, -4.53221130, 0.99918783, -0.00713216, -0.00280539, 0.03956115, 0.00022900, 0.94347411, -0.64600825, 87.59700775, 1211.09814453, 39.34999847, 0.00000000
1, 2.7100, 271, 0.00924704, -0.95422649, -0.35666046, -10.31777763, 1.62769485, -4.31724930, 13.86821175, -65.75074005, 42.33699036, 0.70081133, 0.39972094, -4.53503609, 0.99919140, -0.00624888, -0.00324345, 0.03958565, -0.00257351, 0.94131446, -0.64323378, 87.59700775, 1211.09814453, 39.34999847, 0.00000000
1, 2.7200, 272, 0.01108552, -0.94712543, -0.35674331, -10.05722046, 2.36536860, -4.17948961, 13.86821175, -65.75074005, 42.33699036, 0.60013151, 0.44722453, -4.53048801, 0.99919641, -0.00538723, -0.00369266, 0.03954523, -0.00359323, 0.93599856, -0.64316666, 87.59700775, 1211.09814453, 39.34999847, 0.00000000
1, 2.7300, 273, 0.01608713, -0.93800902, -0.35403875, -9.49360657, 2.84327126, -3.74928761, 13.83164692, -64.91514587, 42.43214417, 0.50067502, 0.50270855, -4.55487299, 0.99919027, -0.00454003, -0.00420981, 0.03975668, -0.00774146, 0.92859089, -0.64588189, 87.59700775, 1211.09814453, 39.34999847, 0.00000000
1, 2.7400, 274, 0.02376114, -0.92414087, -0.35050175, -8.92747307, 3.09876037, -3.35892582, 13.83164692, -65.61880493, 42.52730942, 0.41112301, 0.54517907, -4.54039764, 0.99919677, -0.00377332, -0.00461169, 0.03962842, -0.01451995, 0.91639131, -0.64942539, 87.59700775, 1211.09814453, 39.34999847, 0.00000000
1, 2.7500, 275, 0.02841123, -0.91693854, -0.34658402, -7.84301949, 3.11360598, -2.69395638, 14.27041817, -66.98216248, 42.43214417, 0.33236954, 0.58152211, -4.52316427, 0.99920350, -0.00309843, -0.00495628, 0.03947582, -0.01848429, 0.91063774, -0.65334672, 87.59700775, 1211.09814453, 39.34999847, 0.00000000
1, 2.7600, 276, 0.03741580, -0.91119921, -0.34250620, -6.48232412, 2.60169148, -2.21668935, 13.53913212, -66.27849579, 42.22279358, 0.26729062, 0.61158687, -4.50866127, 0.99920863, -0.00254064, -0.00524118, 0.03934710, -0.02693264, 0.90612859, -0.65742594, 87.59700775, 1211.09814453, 39.34999847, 0.00000000
1, 2.7700, 277, 0.04108644, -0.90813911, -0.33582896, -4.65188122, 1.73351324, -1.76592863, 13.53913212, -66.27849579, 42.22279358, 0.22061251, 0.63432360, -4.50015688, 0.99921149, -0.00214102, -0.00545562, 0.03927114, -0.03015581, 0.90400910, -0.66410279, 87.59700775, 1211.09814453, 39.34999847, 0.00000000
1, 2.7800, 278, 0.04462067, -0.91284984, -0.33145499, -3.53504372, 0.67331952, -1.45764709, 13.68538952, -65.53085327, 42.33699036, 0.19905977, 0.69986761, -4.53652430, 0.99919587, -0.00197745, -0.00603391, 0.03958809, -0.03314731, 0.90934682, -0.66847295, 87.59700775, 1211.09814453, 39.34999847, 0.00000000
1, 2.7900, 279, 0.04578578, -0.91518015, -0.32948980, -2.29523373, -0.26753941, -1.04176366, 13.72195435, -65.31095886, 42.10860443, 0.17619617, 0.70860940, -4.54341030, 0.99919343, -0.00178148, -0.00611793, 0.03964703, -0.03346870, 0.91197330, -0.67042923, 87.59700775, 1211.09814453, 39.34999847, 0.00000000
1, 2.8000, 280, 0.04526687, -0.91774815, -0.32557553, -1.08934689, -1.20638728, -0.76636034, 14.12416077, -65.53085327, 42.86988068, 0.16551766, 0.71138149, -4.55773258, 0.99918854, -0.00169009, -0.00614558, 0.03977137, -0.03286895, 0.91480803, -0.67434323, 87.59700775, 1211.09814453, 39.34999847, 0.00000000
1, 2.8100, 281, 0.04065901, -0.92224145, -0.32128894, 0.37927929, -1.40498245, -0.51135474, 14.34354877, -64.60728455, 42.66053009, 0.16953589, 0.71104950, -4.57256556, 0.99918330, -0.00172581, -0.00614107, 0.03990093, -0.02823922, 0.91932428, -0.67862964, 87.59700775, 1211.09814453, 39.34999847, 0.00000000
1, 2.8200, 282, 0.03276240, -0.92699295, -0.31919393, 1.21246016, -1.09764397, -0.01525011, 14.23385715, -67.50991058, 42.58440399, 0.18181457, 0.70721281, -4.58252382, 0.99917984, -0.00183207, -0.00610318, 0.03998837, -0.02038822, 0.92390394, -0.68072474, 87.59700775, 1211.09814453, 39.34999847, 0.00000000
1, 2.8300, 283, 0.02591467, -0.93355525, -0.31334668, 1.93169904, -0.17450906, 0.54688436, 14.23385715, -67.50991058, 42.58440399, 0.25131932, 0.74641860, -4.61777878, 0.99916404, -0.00245376, -0.00642003, 0.04030013, -0.01343291, 0.92995870, -0.68656874, 87.59700775, 1211.09814453, 39.34999847, 0.00000000
1, 2.8400, 284, 0.01588985, -0.93932962, -0.31020534, 2.27197123, 0.55211949, 1.40487850, 14.30698395, -65.88268280, 42.29892349, 0.27389666, 0.73530883, -4.60694933, 0.99916798, -0.00264612, -0.00631547, 0.04020676, -0.00297722, 0.93469900, -0.68970060, 87.59700775, 1211.09814453, 39.34999847, 0.00000000
1, 2.8500, 285, 0.00735175, -0.94366693, -0.30986819, 2.99266958, 1.23425579, 2.01467681, 13.28317833, -65.44289398, 42.41311646, 0.30354360, 0.72096586, -4.58736229, 0.99917489, -0.00289854, -0.00618050, 0.04003730, 0.00533239, 0.93857265, -0.69003844, 87.59700775, 1211.09814453, 39.34999847, 0.00000000
1, 2.8600, 286, -0.00069513, -0.94674885, -0.31139350, 3.19059420, 2.13443851, 2.68339372, 13.35630894, -65.83870697, 42.60343552, 0.33500066, 0.70361358, -4.55692768, 0.99918562, -0.00316517, -0.00601904, 0.03977322, 0.01309211, 0.94111317, -0.68851376, 87.59700775, 1211.09814453, 39.34999847, 0.00000000
1, 2.8700, 287, -0.00814555, -0.95165777, -0.31052551, 3.33538628, 2.82693338, 3.43579841, 13.21005249, -65.31095886, 42.14667130, 0.36776346, 0.68171835, -4.51728582, 0.99919951, -0.00344124, -0.00581795, 0.03942871, 0.02019314, 0.94545990, -0.68938273, 87.59700775, 1211.09814453, 39.34999847, 0.00000000
1, 2.8800, 288, -0.01443818, -0.95518076, -0.31735778, 3.20511079, 4.18627596, 4.20306444, 13.21005249, -65.31095886, 42.14667130, 0.40813223, 0.65842634, -4.49857235, 0.99920589, -0.00378432, -0.00560158, 0.03926690, 0.02607610, 0.94837737, -0.68255126, 87.59700775, 1211.09814453, 39.34999847, 0.00000000
1, 2.8900, 289, -0.01629374, -0.95587021, -0.31987524, 3.16936469, 5.36136675, 4.73765039, 13.86821175, -65.09105682, 42.20376587, 0.43875301, 0.63340932, -4.43069696, 0.99922919, -0.00403958, -0.00537533, 0.03867575, 0.02750618, 0.94840330, -0.68003398, 87.59700775, 1211.09814453, 39.34999847, 0.00000000
1, 2.9000, 290, -0.01860718, -0.96017379, -0.32371587, 2.59746599, 6.84643126, 4.94640493, 13.57569790, -65.04708099, 42.64150238, 0.46338502, 0.61172521, -4.34838104, 0.99925691, -0.00424334, -0.00518099, 0.03795838, 0.02942474, 0.95224428, -0.67619419, 87.59700775, 1211.09814453, 39.34999847, 0.00000000
1, 2.9100, 291, -0.01720958, -0.96074957, -0.33050457, 2.34542656, 8.33058834, 5.36510134, 13.17348671, -65.79473114, 42.58440399, 0.48521686, 0.59140760, -4.25079155, 0.99928910, -0.00442273, -0.00500035, 0.03710765, 0.02766169, 0.95242143, -0.66940606, 87.59700775, 1211.09814453, 39.34999847, 0.00000000
1, 2.9200, 292, -0.01525384, -0.95913959, -0.33419463, 2.06182337, 9.61149883, 5.60383844, 14.08759975, -65.35493469, 42.73666000, 0.50394434, 0.57340801, -4.14047098, 0.99932432, -0.00457556, -0.00484173, 0.03614574, 0.02537586, 0.95046234, -0.66571647, 87.59700775, 1211.09814453, 39.34999847, 0.00000000
1, 2.9300, 293, -0.01547157, -0.95685375, -0.33830360, 1.56017506, 11.28609180, 5.79878473, 14.08759975, -65.35493469, 42.73666000, 0.51653183, 0.56144321, -4.04879856, 0.99935305, -0.00467778, -0.00473716, 0.03534636, 0.02532914, 0.94791055, -0.66160786, 87.59700775, 1211.09814453, 39.34999847, 0.00000000
1, 2.9400, 294, -0.01539256, -0.95389682, -0.34215835, 0.98622912, 12.94211197, 6.04629564, 13.28317833, -65.39891052, 42.52730942, 0.52389622, 0.55114067, -3.90609860, 0.99939632, -0.00473304, -0.00465094, 0.03410175, 0.02507780, 0.94479156, -0.65775335, 87.59700775, 1211.09814453, 39.34999847, 0.00000000
1, 2.9500, 295, -0.01512082, -0.94468981, -0.34387395, 0.41577968, 13.89142704, 6.48987913, 13.72195435, -65.66278839, 42.37504959, 0.52534258, 0.54007816, -3.75310946, 0.99944144, -0.00473628, -0.00456035, 0.03276708, 0.02461885, 0.93552643, -0.65603900, 87.59700775, 1211.09814453, 39.34999847, 0.00000000
1, 2.9600, 296, -0.01546974, -0.93656254, -0.34338874, 0.07616685, 15.06527424, 6.95505476, 13.86821175, -67.07012177, 43.04117203, 0.52313763, 0.52885836, -3.58758211, 0.99948835, -0.00470740, -0.00446993, 0.03132283, 0.02477445, 0.92741132, -0.65652609, 87.59700775, 1211.09814453, 39.34999847, 0.00000000
1, 2.9700, 297, -0.01730571, -0.92625856, -0.34311953, 0.14300399, 16.25263023, 7.84114981, 13.64882374, -66.63032532, 42.90795135, 0.52130598, 0.51360154, -3.40780187, 0.99953687, -0.00468045, -0.00434471, 0.02975406, 0.02636950, 0.91715038, -0.65679789, 87.59700775, 1211.09814453, 39.34999847, 0.00000000
1, 2.9800, 298, -0.02105276, -0.91537273, -0.34483624, 0.56647843, 17.52713203, 8.81587696, 13.64882374, -66.63032532, 42.90795135, 0.51825821, 0.49397081, -3.24469805, 0.99957913, -0.00464283, -0.00418088, 0.02833048, 0.02980863, 0.90628541, -0.65508413, 87.59700775, 1211.09814453, 39.34999847, 0.00000000
1, 2.9900, 299, -0.02601791, -0.90683180, -0.35181364, 1.31444526, 18.37276649, 9.93879986, 13.83164692, -66.27849579, 42.85084915, 0.52749836, 0.46668559, -3.03731441, 0.99962938, -0.00470955, -0.00394912, 0.02652070, 0.03435172, 0.89770544, -0.64810997, 87.59700775, 1211.09814453, 39.34999847, 0.00000000
1, 3.0000, 300, -0.02672115, -0.89939988, -0.35204497, 2.85015059, 19.36181641, 11.06232834, 13.50256634, -66.76226807, 43.30761719, 0.55172426, 0.43236515, -2.81627560, 0.99967885, -0.00490591, -0.00365359, 0.02459186, 0.03450102, 0.88994509, -0.64788008, 87.59700775, 1211.09814453, 39.34999847, 0.00000000
1, 3.0100, 301, -0.02805373, -0.89936537, -0.35553613, 3.72734594, 20.17814255, 11.93814373, 13.31974411, -65.35493469, 43.26955795, 0.58435071, 0.39266038, -2.58426523, 0.99972647, -0.00517534, -0.00331069, 0.02256709, 0.03517520, 0.88938767, -0.64438874, 87.59700775, 1211.09814453, 39.34999847, 0.00000000
1, 3.0200, 302, -0.02874676, -0.90339923, -0.35754177, 4.08823204, 20.17991257, 13.06208897, 13.28317833, -65.83870697, 43.04117203, 0.62033045, 0.34230831, -2.34818125, 0.99977058, -0.00547342, -0.00287561, 0.02050608, 0.03506443, 0.89280969, -0.64238214, 87.59700775, 1211.09814453, 39.34999847, 0.00000000
1, 3.0300, 303, -0.02703424, -0.90835899, -0.36048165, 4.11636209, 19.73761559, 13.89646339, 13.28317833, -65.83870697, 43.04117203, 0.64983547, 0.28309095, -2.14370537, 0.99980569, -0.00571605, -0.00236388, 0.01871991, 0.03237631, 0.89716792, -0.63944143, 87.59700775, 1211.09814453, 39.34999847, 0.00000000
1, 3.0400, 304, -0.02809852, -0.91236675, -0.36255273, 4.36844730, 18.68323708, 14.48876476, 13.64882374, -67.90572357, 44.20212555, 0.68830925, 0.21382119, -1.91653872, 0.99984026, -0.00603695, -0.00176519, 0.01673505, 0.03229646, 0.90061641, -0.63736939, 87.59700775, 1211.09814453, 39.34999847, 0.00000000
1, 3.0500, 305, -0.02650665, -0.91355622, -0.37285128, 4.73871231, 17.38215637, 14.47785568, 13.94133854, -67.20205688, 44.24018860, 0.73050183, 0.13989162, -1.70152581, 0.99986863, -0.00639220, -0.00112597, 0.01485553, 0.02943370, 0.90107691, -0.62706643, 87.59700775, 1211.09814453, 39.34999847, 0.00000000
1, 3.0600, 306, -0.02739357, -0.91785240, -0.39159897, 3.07751679, 15.71599960, 13.77993393, 13.75851536, -65.97064209, 43.87857819, 0.75626552, 0.06647070, -1.50505257, 0.99989176, -0.00660666, -0.00049333, 0.01313722, 0.02902691, 0.90477777, -0.60831410, 87.59700775, 1211.09814453, 39.34999847, 0.00000000
1, 3.0700, 307, -0.02714149, -0.92136300, -0.41472849, -0.07669998, 14.22703457, 12.01802921, 13.10035515, -68.03766632, 44.24018860, 0.75080830, 0.00425203, -1.32960236, 0.99991131, -0.00655198, 0.00003892, 0.01160270, 0.02759901, 0.90818834, -0.58518457, 87.59700775, 1211.09814453, 39.34999847, 0.00000000
1, 3.0800, 308, -0.02366853, -0.92138028, -0.43004414, -2.82535815, 12.97962379, 9.31073380, 13.35630894, -68.03766632, 43.89761353, 0.69846416, -0.03490284, -1.20934498, 0.99992579, -0.00609166, 0.00036889, 0.01055127, 0.02326394, 0.90868974, -0.56987518, 87.59700775, 1211.09814453, 39.34999847, 0.00000000
1, 3.0900, 309, -0.01708447, -0.90695465, -0.43402255, -4.79784203, 11.27991009, 5.23802471, 13.35630894, -66.63032532, 43.89761353, 0.64703184, -0.04390122, -1.08666098, 0.99993908, -0.00564250, 0.00043663, 0.00948045, 0.01633142, 0.89529824, -0.56590915, 87.59700775, 1211.09814453, 39.34999847, 0.00000000
1, 3.1000, 310, -0.01128476, -0.88437116, -0.43004358, -6.73321486, 7.57823277, -0.23041721, 13.21005249, -68.38949585, 44.18309402, 0.57779777, -0.01480536, -1.01850986, 0.99994779, -0.00504087, 0.00017401, 0.00888729, 0.01078197, 0.87381691, -0.56990051, 87.59700775, 1211.09814453, 39.34999847, 0.00000000
1, 3.1100, 311, 0.00030414, -0.86674529, -0.41345257, -7.03090334, 3.67095780, -5.98944569, 13.21005249, -68.60939789, 44.37340927, 0.50718027, 0.05425412, -1.00749207, 0.99995154, -0.00442996, -0.00043452, 0.00879392, 0.00014090, 0.85745060, -0.58650404, 87.59700775, 1211.09814453, 39.34999847, 0.00000000
1, 3.1200, 312, 0.00443327, -0.85118979, -0.40015781, -5.56610155, -0.14704309, -12.17386913, 13.42943573, -67.90572357, 44.06889725, 0.45270583, 0.16742606, -1.05389655, 0.99994886, -0.00396386, -0.00142466, 0.00920254, -0.00231050, 0.84295237, -0.59980583, 87.59700775, 1211.09814453, 39.34999847, 0.00000000
1, 3.1300, 313, -0.00451635, -0.85636163, -0.39355436, -3.47626710, -4.43126774, -17.87781334, 13.31974411, -66.10257721, 44.29728317, 0.40551001, 0.32158798, -1.19221556, 0.99993557, -0.00356773, -0.00276939, 0.01041368, 0.00905100, 0.84889746, -0.60640717, 87.59700775, 1211.09814453, 39.34999847, 0.00000000
1, 3.1400, 314, -0.01606345, -0.87519771, -0.39098483, -1.82930875, -6.34480858, -22.89774323, 13.31974411, -66.10257721, 44.29728317, 0.39008382, 0.51253706, -1.33407342, 0.99991632, -0.00345592, -0.00443276, 0.01165676, 0.02370182, 0.86834234, -0.60896206, 87.59700775, 1211.09814453, 39.34999847, 0.00000000
1, 3.1500, 315, -0.02724325, -0.89941961, -0.36703506, 4.36920023, -7.93521500, -26.60643578, 13.46600056, -66.01461792, 43.95470810, 0.43660387, 0.73242056, -1.50233364, 0.99988610, -0.00389346, -0.00634098, 0.01313394, 0.03855383, 0.89220870, -0.63287437, 87.59700775, 1211.09814453, 39.34999847, 0.00000000
1, 3.1600, 316, -0.04188605, -0.87753260, -0.34525403, 13.17006683, -8.41027260, -31.17855835, 12.88097191, -65.44289398, 43.59310150, 0.57067996, 0.99355298, -1.68864155, 0.99984080, -0.00510713, -0.00859584, 0.01477808, 0.05746165, 0.86860085, -0.65458369, 87.59700775, 1211.09814453, 39.34999847, 0.00000000
1, 3.1700, 317, -0.03791842, -0.93407965, -0.31029391, 21.53856277, -11.97714329, -33.65222549, 13.13692093, -65.04708099, 43.28859329, 0.78790361, 1.26576030, -1.91397488, 0.99977463, -0.00705880, -0.01092898, 0.01677632, 0.05826189, 0.92176020, -0.68942177, 87.59700775, 1211.09814453, 39.34999847, 0.00000000
1, 3.1800, 318, -0.02629307, -0.97000027, -0.27513304, 18.12044334, -15.82381821, -33.00192261, 14.70919418, -65.83870697, 43.61213303, 0.97171056, 1.51916230, -2.19704628, 0.99969035, -0.00873151, -0.01309133, 0.01928168, 0.05112957, 0.95425528, -0.72443330, 87.59700775, 1211.09814453, 39.34999847, 0.00000000
1, 3.1900, 319, -0.01849106, -1.03744006, -0.25962403, 13.96437073, -19.71791649, -30.83863258, 14.70919418, -65.83870697, 43.61213303, 1.11116862, 1.73949242, -2.48549080, 0.99959946, -0.01002242, -0.01496478, 0.02183193, 0.04741986, 1.01889634, -0.73978460, 87.59700775, 1211.09814453, 39.34999847, 0.00000000
1, 3.2000, 320, -0.04306471, -1.07941329, -0.23994772, 11.98444653, -20.72793388, -24.52561760, 14.19729233, -63.28790665, 43.66922760, 1.22989559, 1.89772260, -2.76165318, 0.99951077, -0.01112710, -0.01629563, 0.02427062, 0.07524535, 1.05874586, -0.75932020, 87.59700775, 1211.09814453, 39.34999847, 0.00000000
1, 3.2100, 321, -0.07003994, -1.11530101, -0.22573079, 12.05067635, -18.77965927, -17.64689636, 14.52637196, -64.43137360, 43.74535370, 1.34891999, 1.99865854, -2.99549842, 0.99943173, -0.01222129, -0.01712590, 0.02633711, 0.10434250, 1.09254956, -0.77342147, 87.59700775, 1211.09814453, 39.34999847, 0.00000000
1, 3.2200, 322, -0.08500883, -1.13764727, -0.21823932, 6.32882595, -16.26921844, -10.12340832, 14.12416077, -63.28790665, 43.40278244, 1.41078103, 2.03794265, -3.18135667, 0.99937481, -0.01279800, -0.01743357, 0.02797136, 0.12036196, 1.11340117, -0.78084141, 87.59700775, 1211.09814453, 39.34999847, 0.00000000
1, 3.2300, 323, -0.08991152, -1.15095377, -0.18841979, 2.58372831, -12.22618294, -5.15775728, 14.05103493, -63.46382904, 43.44084167, 1.45648646, 2.02942872, -3.34923244, 0.99932891, -0.01321996, -0.01732881, 0.02944144, 0.12562579, 1.12579966, -0.81062555, 87.59700775, 1211.09814453, 39.34999847, 0.00000000
1, 3.2400, 324, -0.10764125, -1.08658957, -0.21356675, -9.62831688, -11.11776829, 3.16471720, 14.05103493, -63.46382904, 43.44084167, 1.35939419, 1.96169972, -3.44550323, 0.99932516, -0.01237016, -0.01675270, 0.03025961, 0.14238556, 1.06221521, -0.78553200, 87.59700775, 1211.09814453, 39.34999847, 0.00000000
1, 3.2500, 325, -0.10829176, -1.06855786, -0.20326021, -1.67193186, -9.90730095, 5.36310911, 13.86821175, -63.02403641, 43.55503845, 1.34212279, 1.87732363, -3.52060556, 0.99931955, -0.01220805, -0.01601342, 0.03090378, 0.14165941, 1.04510880, -0.79590762, 87.59700775, 1211.09814453, 39.34999847, 0.00000000
1, 3.2600, 326, -0.12756991, -1.06604040, -0.20096050, -6.55264568, -9.07021332, 12.77853012, 14.48980618, -63.46382904, 43.61213303, 1.27629733, 1.72617924, -3.56360984, 0.99933589, -0.01159925, -0.01470870, 0.03125557, 0.15869796, 1.04332137, -0.79829633, 87.59700775, 1211.09814453, 39.34999847, 0.00000000
1, 3.2700, 327, -0.10888836, -1.03543377, -0.21272132, -4.84153318, -8.90665531, 17.27678108, 14.59950256, -63.41984940, 43.66922760, 1.22771096, 1.53331888, -3.58892155, 0.99935830, -0.01112635, -0.01303754, 0.03145280, 0.13698409, 1.01374149, -0.78664798, 87.59700775, 1211.09814453, 39.34999847, 0.00000000
1, 3.2800, 328, -0.08575101, -1.00636935, -0.20333739, -4.33856630, -8.30970573, 21.98120117, 13.46600056, -62.89209366, 42.67956161, 1.19728923, 1.29086542, -3.62330222, 0.99937856, -0.01079834, -0.01092815, 0.03172791, 0.10995077, 0.98533404, -0.79614770, 87.59700775, 1211.09814453, 39.34999847, 0.00000000
1, 3.2900, 329, -0.05979436, -0.97563928, -0.20831034, -5.86914825, -6.74531174, 25.30591965, 13.46600056, -62.89209366, 42.67956161, 1.13826299, 1.03014278, -3.60055637, 0.99941391, -0.01021015, -0.00867265, 0.03150203, 0.07950467, 0.95540428, -0.79128969, 87.59700775, 1211.09814453, 39.34999847, 0.00000000
1, 3.3000, 330, -0.03724455, -0.96394676, -0.19588822, -5.37104130, -5.97330904, 27.67611694, 13.61225796, -63.02403641, 43.07923508, 1.08393502, 0.74989259, -3.56195378, 0.99944890, -0.00965757, -0.00624658, 0.03113871, 0.05219400, 0.94466770, -0.80381310, 87.59700775, 1211.09814453, 39.34999847, 0.00000000
1, 3.3100, 331, -0.03928551, -0.92548019, -0.20917286, -8.05219364, -5.36754179, 29.24394608, 13.28317833, -63.94759750, 43.13633347, 1.00242949, 0.45711309, -3.51261115, 0.99948299, -0.00886581, -0.00371892, 0.03068196, 0.04915573, 0.90748388, -0.79061544, 87.59700775, 1211.09814453, 39.34999847, 0.00000000
1, 3.3200, 332, -0.03912177, -0.90559304, -0.19979797, -5.50953627, -5.05711317, 29.31300735, 13.35630894, -64.60728455, 42.77472687, 0.94601429, 0.16482222, -3.45908237, 0.99950904, -0.00829508, -0.00118848, 0.03019240, 0.04391176, 0.88870853, -0.80004704, 87.59700775, 1211.09814453, 39.34999847, 0.00000000
1, 3.3300, 333, -0.04389685, -0.89525914, -0.19242238, -5.79325581, -4.95157576, 29.01726341, 12.95409870, -65.61880493, 42.67956161, 0.89714706, -0.12502991, -3.43584776, 0.99951965, -0.00779277, 0.00132527, 0.02996945, 0.04359873, 0.87935925, -0.80745006, 87.59700775, 1211.09814453, 39.34999847, 0.00000000
1, 3.3400, 334, -0.05015144, -0.89434004, -0.18285358, -4.53273439, -4.77570581, 27.24169540, 12.95409870, -65.61880493, 42.67956161, 0.85010856, -0.39684910, -3.38617373, 0.99953073, -0.00731293, 0.00368073, 0.02951896, 0.04497477, 0.87922084, -0.81701785, 87.59700775, 1211.09814453, 39.34999847, 0.00000000
1, 3.3500, 335, -0.04734460, -0.89012164, -0.17500827, -3.76111603, -5.35104513, 24.99479294, 12.51532650, -65.88268280, 43.07923508, 0.81105304, -0.64963144, -3.34936714, 0.99953294, -0.00690890, 0.00587335, 0.02918326, 0.03763564, 0.87571287, -0.82484001, 87.59700775, 1211.09814453, 39.34999847, 0.00000000
1, 3.3600, 336, -0.04771409, -0.88416249, -0.16444677, -4.03712559, -6.47727013, 22.35279083, 11.96685791, -64.95912170, 42.92698288, 0.76990592, -0.88163143, -3.33230710, 0.99952656, -0.00649191, 0.00788553, 0.02902257, 0.03381265, 0.87044644, -0.83536184, 87.59700775, 1211.09814453, 39.34999847, 0.00000000
1, 3.3700, 337, -0.05448548, -0.87826508, -0.15792476, -4.21661091, -7.09189272, 18.89506721, 12.58845234, -66.19053650, 42.79375458, 0.72770816, -1.08344328, -3.33308101, 0.99951392, -0.00607248, 0.00963517, 0.02902060, 0.03685274, 0.86529016, -0.84183514, 87.59700775, 1211.09814453, 39.34999847, 0.00000000
1, 3.3800, 338, -0.06280486, -0.87553555, -0.14910400, -5.23715353, -7.36434126, 15.09555054, 12.47876072, -66.01461792, 42.98407745, 0.69735771, -1.25229597, -3.38377190, 0.99948782, -0.00575989, 0.01110282, 0.02945590, 0.04201088, 0.86330265, -0.85060465, 87.59700775, 1211.09814453, 39.34999847, 0.00000000
1, 3.3900, 339, -0.07299457, -0.88135791, -0.14104186, -4.84727907, -7.21687555, 11.47632599, 12.03998470, -66.10257721, 43.06019974, 0.65024066, -1.38517225, -3.41191268, 0.99946970, -0.00531161, 0.01225097, 0.02969893, 0.04964713, 0.86970520, -0.85861742, 87.59700775, 1211.09814453, 39.34999847, 0.00000000
1, 3.4000, 340, -0.08818675, -0.89393950, -0.13631350, -4.81906986, -6.95444584, 8.00125122, 12.03998470, -66.10257721, 43.06019974, 0.60397840, -1.48465049, -3.44982195, 0.99945122, -0.00487788, 0.01310824, 0.03002962, 0.06288078, 0.88309467, -0.86330730, 87.59700775, 1211.09814453, 39.34999847, 0.00000000
1, 3.4100, 341, -0.10484578, -0.90446818, -0.13758630, -4.98068285, -6.18571758, 4.95928240, 12.51532650, -66.98216248, 42.71763229, 0.55637670, -1.55300164, -3.49133682, 0.99943441, -0.00443975, 0.01369352, 0.03039401, 0.07814892, 0.89444572, -0.86200696, 87.59700775, 1211.09814453, 39.34999847, 0.00000000
1, 3.4200, 342, -0.12686719, -0.92088294, -0.13788298, -5.56016111, -5.49599934, 2.35638809, 12.36906433, -66.93818665, 42.60343552, 0.50318223, -1.59460592, -3.53579402, 0.99941951, -0.00395928, 0.01404381, 0.03078636, 0.09927229, 0.91173536, -0.86169434, 87.59700775, 1211.09814453, 39.34999847, 0.00000000
1, 3.4300, 343, -0.14739339, -0.92445362, -0.14130192, -6.70203781, -4.47159910, 0.00834712, 11.74746990, -65.83870697, 42.33699036, 0.50143838, -1.64683115, -3.61972404, 0.99939036, -0.00391936, 0.01450169, 0.03151637, 0.11919741, 0.91609049, -0.85826540, 87.59700775, 1211.09814453, 39.34999847, 0.00000000
1, 3.4400, 344, -0.16274971, -0.91910464, -0.14687732, -6.94853163, -3.38956547, -2.28848672, 12.07655048, -65.44289398, 42.08957291, 0.43426654, -1.63757348, -3.66146302, 0.99938208, -0.00333084, 0.01440369, 0.03188923, 0.13407916, 0.91108716, -0.85267937, 87.59700775, 1211.09814453, 39.34999847, 0.00000000
1, 3.4500, 345, -0.17116988, -0.91163552, -0.15682317, -8.01947021, -2.81630540, -4.29466391, 12.07655048, -65.44289398, 42.08957291, 0.35649279, -1.60758209, -3.70535636, 0.99937546, -0.00265552, 0.01412150, 0.03228273, 0.14289024, 0.90488136, -0.84275395, 87.59700775, 1211.09814453, 39.34999847, 0.00000000
1, 3.4600, 346, -0.17283396, -0.88743138, -0.16614452, -7.67971420, -1.71878040, -6.20624304, 11.63777828, -66.23451233, 42.71763229, 0.28189605, -1.55586493, -3.74583960, 0.99937177, -0.00201473, 0.01365016, 0.03264629, 0.14532270, 0.88204992, -0.83346242, 87.59700775, 1211.09814453, 39.34999847, 0.00000000
1, 3.4700, 347, -0.16906159, -0.93957454, -0.18552279, -10.25108719, -0.87677568, -7.51662350, 12.62501812, -66.36645508, 42.50827408, 0.18142579, -1.48894036, -3.78398705, 0.99936998, -0.00115327, 0.01303826, 0.03299212, 0.14262547, 0.93566549, -0.81411994, 87.59700775, 1211.09814453, 39.34999847, 0.00000000
1, 3.4800, 348, -0.15922332, -0.95991600, -0.20928364, -14.76113510, 0.34264347, -7.63539124, 12.40563011, -66.01461792, 42.60343552, 0.05743585, -1.43513775, -3.84760261, 0.99935818, -0.00008048, 0.01253337, 0.03356144, 0.13394316, 0.95819837, -0.79039502, 87.59700775, 1211.09814453, 39.34999847, 0.00000000
1, 3.4900, 349, -0.15041952, -0.97692001, -0.22312441, -14.72031879, 3.33701849, -6.02567244, 13.17348671, -65.88268280, 42.29892349, -0.09006447, -1.36684692, -3.84259224, 0.99936616, 0.00118536, 0.01189465, 0.03353363, 0.12613276, 0.97756302, -0.77658015, 87.59700775, 1211.09814453, 39.34999847, 0.00000000
1, 3.5000, 350, -0.15097776, -0.95711368, -0.22695765, -9.14407253, 6.62480688, -2.91498780, 13.17348671, -65.88268280, 42.29892349, -0.18399073, -1.31538415, -3.79419351, 0.99938416, 0.00198463, 0.01141918, 0.03312072, 0.12770654, 0.95979679, -0.77276784, 87.59700775, 1211.09814453, 39.34999847, 0.00000000
1, 3.5100, 351, -0.15972188, -0.97410005, -0.24080536, -5.67529058, 6.94500446, 0.17491220, 12.80784130, -64.21147156, 41.55667496, -0.24394506, -1.29139936, -3.73054910, 0.99940372, 0.00249437, 0.01119406, 0.03257126, 0.13708580, 0.97798097, -0.75893086, 87.59700775, 1211.09814453, 39.34999847, 0.00000000
1, 3.5200, 352, -0.15361306, -0.98526078, -0.25063378, -4.04128313, 3.78399038, 3.30270815, 12.11311531, -64.16749573, 41.82312393, -0.28668740, -1.30810535, -3.68427920, 0.99941409, 0.00286731, 0.01132877, 0.03217220, 0.13095531, 0.99002713, -0.74909806, 87.59700775, 1211.09814453, 39.34999847, 0.00000000
1, 3.5300, 353, -0.14664620, -1.02080214, -0.25428930, 0.07931747, -0.92108977, 6.54863787, 12.44219589, -64.95912170, 41.76602936, -0.25076973, -1.39846277, -3.70907187, 0.99939859, 0.00258200, 0.01212635, 0.03238630, 0.12306336, 1.02570391, -0.74542040, 87.59700775, 1211.09814453, 39.34999847, 0.00000000
1, 3.5400, 354, -0.15122288, -1.06586778, -0.26213911, 3.98891091, -5.46689272, 9.39426136, 12.62501812, -65.70676422, 42.07053757, -0.21006301, -1.50594687, -3.72412086, 0.99938321, 0.00225903, 0.01307496, 0.03251457, 0.12569581, 1.06985044, -0.73752689, 87.59700775, 1211.09814453, 39.34999847, 0.00000000
1, 3.5500, 355, -0.16112582, -1.10919940, -0.27283460, 7.00485373, -9.18407440, 11.50417137, 12.62501812, -65.70676422, 42.07053757, -0.13771932, -1.64671409, -3.76524091, 0.99935579, 0.00167313, 0.01432255, 0.03286585, 0.13335240, 1.11210322, -0.72677517, 87.59700775, 1211.09814453, 39.34999847, 0.00000000
1, 3.5600, 356, -0.16128029, -1.17369819, -0.26972955, 5.95633316, -12.59668827, 12.98252583, 12.84440613, -65.09105682, 41.72796249, -0.07421652, -1.81370866, -3.83315206, 0.99931490, 0.00117654, 0.01579641, 0.03345037, 0.13074979, 1.17534184, -0.72980261, 87.59700775, 1211.09814453, 39.34999847, 0.00000000
1, 3.5700, 357, -0.14840657, -1.20687640, -0.23724303, 1.90453625, -14.94711304, 13.12129021, 12.91753292, -65.26697540, 42.01344299, -0.04968030, -1.99055791, -3.92366195, 0.99926281, 0.00102786, 0.01734499, 0.03423607, 0.11482212, 1.20788896, -0.76219201, 87.59700775, 1211.09814453, 39.34999847, 0.00000000
1, 3.5800, 358, -0.13273080, -1.22677219, -0.18767723, 1.94573152, -15.75168133, 11.96166039, 13.02722931, -66.19053650, 41.74699402, -0.01229516, -2.16150713, -4.05938101, 0.99919474, 0.00077524, 0.01884595, 0.03541308, 0.09613138, 1.22730780, -0.81165224, 87.59700775, 1211.09814453, 39.34999847, 0.00000000
1, 3.5900, 359, -0.13989435, -1.24279106, -0.18174741, 2.49585962, -16.87362480, 10.51254749, 12.11311531, -65.35493469, 41.17603302, 0.02051873, -2.32100534, -4.17743158, 0.99913079, 0.00055926, 0.02024627, 0.03643578, 0.10043353, 1.24265611, -0.81747341, 87.59700775, 1211.09814453, 39.34999847, 0.00000000
1, 3.6000, 360, -0.16245642, -1.29750383, -0.18210918, 1.46638894, -18.25629997, 10.62725353, 12.11311531, -65.35493469, 41.17603302, 0.04423827, -2.48655128, -4.30830622, 0.99905831, 0.00042988, 0.02169671, 0.03757098, 0.12016831, 1.29686713, -0.81699574, 87.59700775, 1211.09814453, 39.34999847, 0.00000000
1, 3.6100, 361, -0.18986453, -1.33483183, -0.20529097, 2.52976727, -17.67688370, 12.44674873, 12.07655048, -64.65126801, 41.17603302, 0.07810073, -2.66687417, -4.42696333, 0.99898374, 0.00021792, 0.02327971, 0.03859660, 0.14453766, 1.33371615, -0.79368025, 87.59700775, 1211.09814453, 39.34999847, 0.00000000
1, 3.6200, 362, -0.21739712, -1.36091220, -0.23833169, 1.98251212, -17.94224739, 15.85303593, 12.47876072, -65.44289398, 41.34732437, 0.10617734, -2.87982535, -4.53595877, 0.99890172, 0.00006887, 0.02514553, 0.03953758, 0.16861802, 1.35922050, -0.76047593, 87.59700775, 1211.09814453, 39.34999847, 0.00000000
1, 3.6300, 363, -0.21665750, -1.38437927, -0.23812263, -0.84284955, -17.10690689, 21.18789101, 12.36906433, -65.79473114, 40.70023346, 0.10547098, -3.14064240, -4.64850521, 0.99880266, 0.00019205, 0.02741859, 0.04051428, 0.16363882, 1.38251066, -0.76046836, 87.59700775, 1211.09814453, 39.34999847, 0.00000000
1, 3.6400, 364, -0.21836443, -1.38824582, -0.25586084, -6.15212011, -15.42153835, 27.93690300, 11.67433929, -65.53085327, 40.31959152, 0.04760233, -3.45697999, -4.69217968, 0.99870759, 0.00081988, 0.03015497, 0.04090439, 0.16020441, 1.38693380, -0.74244428, 87.59700775, 1211.09814453, 39.34999847, 0.00000000
1, 3.6500, 365, -0.24599487, -1.36203015, -0.30157351, -14.11775017, -15.02184677, 34.38576508, 11.63777828, -65.53085327, 40.01508331, -0.09199850, -3.83194923, -4.71016026, 0.99859542, 0.00217558, 0.03337260, 0.04109615, 0.18168744, 1.36259174, -0.69635445, 87.59700775, 1211.09814453, 39.34999847, 0.00000000
1, 3.6600, 366, -0.24519902, -1.32950914, -0.35354573, -20.16467476, -14.53400993, 39.49465179, 11.63777828, -66.36645508, 40.01508331, -0.29416758, -4.25267410, -4.70523548, 0.99846202, 0.00408622, 0.03696635, 0.04111615, 0.17385238, 1.33328366, -0.64389610, 87.59700775, 1211.09814453, 39.34999847, 0.00000000
1, 3.6700, 367, -0.21701211, -1.30271852, -0.39147559, -17.00452614, -13.92966461, 43.96258163, 11.34525871, -66.93818665, 40.37668991, -0.46732992, -4.71260023, -4.67573404, 0.99830770, 0.00574847, 0.04091281, 0.04092484, 0.13790065, 1.30982256, -0.60536200, 87.59700775, 1211.09814453, 39.34999847, 0.00000000
1, 3.6800, 368, -0.16952813, -1.24902225, -0.43389392, -8.29333305, -14.29271603, 48.32286835, 10.54084206, -68.78530884, 40.45281982, -0.55883741, -5.21301270, -4.65314007, 0.99812114, 0.00671379, 0.04524062, 0.04077425, 0.08198658, 1.25820935, -0.56222141, 87.59700775, 1211.09814453, 39.34999847, 0.00000000
1, 3.6900, 369, -0.11264183, -1.18930411, -0.44675180, -6.35323191, -20.71920013, 50.85372543, 10.50427628, -69.13714600, 39.84379578, -0.62181497, -5.76215744, -4.65630484, 0.99788588, 0.00745679, 0.05000073, 0.04084330, 0.01587263, 1.19968462, -0.54849720, 87.59700775, 1211.09814453, 39.34999847, 0.00000000
1, 3.7000, 370, -0.08638894, -1.14568222, -0.44132167, -9.54968739, -25.57573128, 50.39226151, 8.74918270, -68.74133301, 39.53927994, -0.71050984, -6.32530165, -4.70662832, 0.99760163, 0.00845101, 0.05486883, 0.04133998, -0.02014630, 1.15738177, -0.55291456, 87.59700775, 1211.09814453, 39.34999847, 0.00000000
1, 3.7100, 371, -0.09769104, -1.04276848, -0.44947633, -14.35176659, -25.07794571, 45.95252991, 8.74918270, -68.74133301, 39.53927994, -0.84496319, -6.84557247, -4.76948404, 0.99730623, 0.00983826, 0.05934375, 0.04197406, -0.01821034, 1.05648863, -0.54368627, 87.59700775, 1211.09814453, 39.34999847, 0.00000000
1, 3.7200, 372, -0.15841964, -0.94809067, -0.47850627, -18.00945091, -25.68706131, 37.30238724, 8.42010212, -69.40102386, 38.93025589, -1.00968778, -7.28834867, -4.87083483, 0.99701416, 0.01148608, 0.06312642, 0.04296520, 0.03431965, 0.96447754, -0.51362562, 87.59700775, 1211.09814453, 39.34999847, 0.00000000
1, 3.7300, 373, -0.19887681, -0.86843091, -0.50883782, -21.07251740, -24.55810738, 28.63423347, 7.65224838, -70.85233307, 38.89219284, -1.21650743, -7.64803171, -5.01500607, 0.99673116, 0.01349968, 0.06616109, 0.04435765, 0.06801515, 0.88795656, -0.48236847, 87.59700775, 1211.09814453, 39.34999847, 0.00000000
1, 3.7400, 374, -0.15836123, -0.81092304, -0.53225929, -29.66743469, -22.27312469, 21.14990044, 7.79850578, -72.69946289, 38.56864929, -1.49152946, -7.92944860, -5.14778566, 0.99647558, 0.01607619, 0.06848355, 0.04569554, 0.02214776, 0.83480084, -0.45813048, 87.59700775, 1211.09814453, 39.34999847, 0.00000000
1, 3.7500, 375, -0.08048854, -0.73157704, -0.55643922, -40.46605301, -17.29238319, 15.68017483, 7.43286037, -71.07222748, 37.92155838, -1.87787724, -8.14184093, -5.25740719, 0.99624026, 0.01958375, 0.07015729, 0.04690366, -0.05987429, 0.76137775, -0.43320993, 87.59700775, 1211.09814453, 39.34999847, 0.00000000
1, 3.7600, 376, -0.02571742, -0.64539886, -0.57706875, -44.68618774, -7.20402384, 8.45198059, 7.43286037, -71.07222748, 37.92155838, -2.31717277, -8.24848747, -5.30240726, 0.99607193, 0.02347182, 0.07089494, 0.04757913, -0.11721493, 0.68256819, -0.41196311, 87.59700775, 1211.09814453, 39.34999847, 0.00000000
1, 3.7700, 377, 0.00334665, -0.58992147, -0.60029143, -40.39839935, 4.89525795, 1.94316244, 7.28660297, -71.73191833, 38.09284973, -2.72847128, -8.24680614, -5.26042080, 0.99599975, 0.02702026, 0.07071898, 0.04746806, -0.14692967, 0.63444120, -0.38834304, 87.59700775, 1211.09814453, 39.34999847, 0.00000000
1, 3.7800, 378, -0.01019971, -0.50074172, -0.61749190, -31.77865028, 21.90768242, -0.69628149, 7.06721497, -70.06070709, 37.50285721, -3.11364985, -8.14225292, -5.08958673, 0.99603963, 0.03022412, 0.06969533, 0.04619893, -0.13221937, 0.55191135, -0.37098908, 87.59700775, 1211.09814453, 39.34999847, 0.00000000
1, 3.7900, 379, -0.03635594, -0.45472640, -0.58578694, -21.63267708, 27.28124619, -1.26475167, 6.77470016, -69.92877197, 37.25543976, -3.37027001, -8.01719093, -4.85057783, 0.99614209, 0.03226560, 0.06857193, 0.04424873, -0.10392146, 0.51139659, -0.40270120, 87.59700775, 1211.09814453, 39.34999847, 0.00000000
1, 3.8000, 380, -0.04016630, -0.43387473, -0.54395711, -8.75611496, 28.40716743, -2.07150483, 7.17690897, -70.98426819, 37.84543228, -3.49923277, -7.87905264, -4.60167122, 0.99628389, 0.03319202, 0.06739329, 0.04212877, -0.09785432, 0.49370122, -0.44466332, 87.59700775, 1211.09814453, 39.34999847, 0.00000000
1, 3.8100, 381, -0.00926530, -0.44615087, -0.51927739, 7.15075350, 28.83595848, -4.99400520, 7.17690897, -70.98426819, 37.84543228, -3.46773958, -7.71213388, -4.35710335, 0.99648124, 0.03272206, 0.06602328, 0.03994364, -0.12602605, 0.50648683, -0.46968919, 87.59700775, 1211.09814453, 39.34999847, 0.00000000
1, 3.8200, 382, 0.01558847, -0.49730393, -0.51568049, 18.65903091, 26.86236382, -4.73672390, 6.92095757, -71.55600739, 37.88349915, -3.31823397, -7.55604172, -4.12617445, 0.99669337, 0.03124243, 0.06478076, 0.03781309, -0.14806148, 0.55578834, -0.47377861, 87.59700775, 1211.09814453, 39.34999847, 0.00000000
1, 3.8300, 383, 0.03306647, -0.55771106, -0.53376836, 29.20663452, 19.51929474, -2.91944957, 7.35973167, -72.03977203, 38.11188126, -3.08135796, -7.43309927, -3.97341013, 0.99687618, 0.02906036, 0.06382801, 0.03632393, -0.16322079, 0.61247045, -0.45621121, 87.59700775, 1211.09814453, 39.34999847, 0.00000000
1, 3.8400, 384, 0.02464209, -0.64349210, -0.53044468, 29.85734558, 7.83513927, 1.52632248, 7.46942568, -70.94029236, 38.11188126, -2.79619408, -7.41423273, -3.88695312, 0.99698317, 0.02652598, 0.06377407, 0.03540915, -0.15367611, 0.69368523, -0.45992339, 87.59700775, 1211.09814453, 39.34999847, 0.00000000
1, 3.8500, 385, -0.00151812, -0.76185840, -0.50281048, 34.55313110, -2.65700746, 3.18982697, 7.32316637, -74.41464996, 38.16897583, -2.45018697, -7.45372581, -3.88883185, 0.99703568, 0.02352773, 0.06422398, 0.03523937, -0.12790914, 0.80664623, -0.48776484, 87.59700775, 1211.09814453, 39.34999847, 0.00000000
