SensorId, TimeStamp (s), FrameNumber, AccX (g), AccY (g), AccZ (g), GyroX (deg/s), GyroY (deg/s), GyroZ (deg/s), MagX (uT), MagY (uT), MagZ (uT), EulerX (deg), EulerY (deg), EulerZ (deg), QuatW, QuatX, QuatY, QuatZ, LinAccX (g), LinAccY (g), LinAccZ (g), Pressure (kPa), Altitude (m), Temperature (degC), HeaveMotion (m)
1, 0.0000, 0, -0.02145636, -0.94700199, -0.34426740, -0.04211016, 0.06249546, 0.12723640, 13.86821175, -65.04708099, 42.85084915, 69.35618591, -1.35684538, -175.90333557, -0.03612415, 0.01060423, -0.56890959, -0.82153791, -0.00221376, 0.01147223, -0.00818646, 87.59300232, 1211.47338867, 39.12999725, 0.00000000
1, 0.0100, 1, -0.02049174, -0.94704038, -0.34481099, -0.11052260, -0.19421266, 0.05173550, 13.86821175, -65.04708099, 42.85084915, 69.45350647, -1.33023798, -175.93270874, -0.03577249, 0.01067960, -0.56960464, -0.82107061, -0.00308089, 0.01136366, -0.00725823, 87.59300232, 1211.47338867, 39.12999725, 0.00000000
1, 0.0200, 2, -0.02011361, -0.94670826, -0.34621984, -0.23595726, -0.17775816, 0.03488696, 14.19729233, -64.82717896, 43.34568787, 69.45118713, -1.33118784, -175.93426514, -0.03576636, 0.01066439, -0.56958830, -0.82108241, -0.00311201, 0.01058112, -0.00467410, 87.59300232, 1211.47338867, 39.12999725, 0.00000000
1, 0.0300, 3, -0.02022171, -0.94585967, -0.34599954, -0.27084520, -0.41961110, 0.11780057, 14.41668034, -65.79473114, 43.44084167, 69.44855499, -1.33376372, -175.93778992, -0.03575420, 0.01062762, -0.56957030, -0.82109594, -0.00303689, 0.00974891, -0.00493597, 87.59300232, 1211.47338867, 39.12999725, 0.00000000
1, 0.0400, 4, -0.02195794, -0.94356430, -0.34624818, -0.41225532, -0.34897345, -0.07364306, 14.27041817, -64.29943085, 43.57406616, 69.44451904, -1.33429945, -175.94131470, -0.03573195, 0.01060499, -0.56954181, -0.82111698, -0.00132906, 0.00747609, -0.00474579, 87.59300232, 1211.47338867, 39.12999725, 0.00000000
1, 0.0500, 5, -0.02138648, -0.94217426, -0.34687811, -0.44955721, -0.29894271, -0.00216383, 14.16072655, -65.53085327, 43.68825912, 69.44010162, -1.33532941, -175.94410706, -0.03571736, 0.01058227, -0.56951052, -0.82113945, -0.00190768, 0.00611348, -0.00418852, 87.59300232, 1211.47338867, 39.12999725, 0.00000000
1, 0.0600, 6, -0.02301866, -0.94350195, -0.34536704, -0.36120322, -0.07439358, -0.05044824, 14.16072655, -65.53085327, 43.68825912, 69.46433258, -1.33858526, -175.96685791, -0.03556840, 0.01045347, -0.56968689, -0.82102525, -0.00029892, 0.00742324, -0.00564990, 87.59300232, 1211.47338867, 39.12999725, 0.00000000
1, 0.0700, 7, -0.02239469, -0.94364005, -0.34569967, -0.28033996, -0.10672349, -0.00193636, 13.83164692, -64.69524384, 43.28859329, 69.46154785, -1.33894062, -175.96784973, -0.03556320, 0.01044505, -0.56966710, -0.82103932, -0.00097204, 0.00745110, -0.00501984, 87.59300232, 1211.47338867, 39.12999725, 0.00000000
1, 0.0800, 8, -0.02235693, -0.94459975, -0.34472156, -0.37206158, 0.01149628, 0.07114292, 14.05103493, -65.26697540, 43.30761719, 69.45780945, -1.33956575, -175.96749878, -0.03556921, 0.01044118, -0.56964046, -0.82105768, -0.00101770, 0.00843444, -0.00606067, 87.59300232, 1211.47338867, 39.12999725, 0.00000000
1, 0.0900, 9, -0.02256095, -0.94476748, -0.34589419, -0.44380403, -0.04109789, 0.10541336, 14.19729233, -66.32247925, 43.38374710, 69.45336151, -1.34069681, -175.96751404, -0.03557512, 0.01043162, -0.56960887, -0.82107949, -0.00083108, 0.00862579, -0.00494979, 87.59300232, 1211.47338867, 39.12999725, 0.00000000
1, 0.1000, 10, -0.02351107, -0.94498420, -0.34658301, -0.46291575, 0.06139151, 0.12520486, 14.08759975, -66.10257721, 43.59310150, 69.44871521, -1.34165359, -175.96649170, -0.03558756, 0.01042835, -0.56957561, -0.82110196, 0.00010730, 0.00886989, -0.00433341, 87.59300232, 1211.47338867, 39.12999725, 0.00000000
1, 0.1100, 11, -0.02439073, -0.94524652, -0.34819448, -0.55416858, 0.12815297, 0.19720089, 14.08759975, -66.10257721, 43.59310150, 69.45098877, -1.34439075, -175.98573303, -0.03546316, 0.01031385, -0.56959414, -0.82109594, 0.00095265, 0.00915439, -0.00277872, 87.59300232, 1211.47338867, 39.12999725, 0.00000000
1, 0.1200, 12, -0.02415462, -0.94491923, -0.34745109, -0.69982493, 0.31513488, 0.23673429, 13.90477753, -65.53085327, 43.02214050, 69.44390106, -1.34550118, -175.98194885, -0.03549641, 0.01032250, -0.56954324, -0.82112962, 0.00067712, 0.00883283, -0.00353487, 87.59300232, 1211.47338867, 39.12999725, 0.00000000
1, 0.1300, 13, -0.02524254, -0.94431669, -0.34801251, -0.77112001, 0.40176874, 0.15088223, 14.45324135, -64.78320312, 43.21246338, 69.43609619, -1.34550297, -175.97766113, -0.03552788, 0.01034140, -0.56948692, -0.82116717, 0.00175998, 0.00827448, -0.00309085, 87.59300232, 1211.47338867, 39.12999725, 0.00000000
1, 0.1400, 14, -0.02465031, -0.94420576, -0.34871292, -0.87980330, 0.52099401, 0.15372135, 14.34354877, -64.03556061, 43.26955795, 69.42716980, -1.34511137, -175.97222900, -0.03556558, 0.01036837, -0.56942236, -0.82120991, 0.00117497, 0.00821711, -0.00253367, 87.59300232, 1211.47338867, 39.12999725, 0.00000000
1, 0.1500, 15, -0.02284685, -0.94365567, -0.34708932, -0.70128512, 0.55613333, 0.18907049, 14.52637196, -66.14656067, 43.34568787, 69.42001343, -1.34492624, -175.96635437, -0.03560740, 0.01039666, -0.56937057, -0.82124376, -0.00062752, 0.00771503, -0.00428511, 87.59300232, 1211.47338867, 39.12999725, 0.00000000
1, 0.1600, 16, -0.02162316, -0.94350696, -0.34569028, -0.77656287, 0.56871164, 0.43566158, 14.52637196, -65.57482910, 43.82148361, 69.41649628, -1.34518874, -175.98104858, -0.03550375, 0.01032070, -0.56934679, -0.82126576, -0.00186008, 0.00760671, -0.00579134, 87.59300232, 1211.47338867, 39.12999725, 0.00000000
1, 0.1700, 17, -0.01871223, -0.94292623, -0.34697738, -0.56090164, 0.66315287, 0.36186767, 14.52637196, -65.57482910, 43.82148361, 69.41070557, -1.34624445, -175.97357178, -0.03556313, 0.01034851, -0.56930476, -0.82129180, -0.00477357, 0.00704764, -0.00456159, 87.59300232, 1211.47338867, 39.12999725, 0.00000000
1, 0.1800, 18, -0.01851955, -0.94486099, -0.34785065, -0.67292446, 0.55033511, 0.32893929, 14.63606358, -64.43137360, 43.78342438, 69.40383911, -1.34738719, -175.96726990, -0.03561465, 0.01036953, -0.56925517, -0.82132375, -0.00498675, 0.00902165, -0.00379136, 87.59300232, 1211.47338867, 39.12999725, 0.00000000
1, 0.1900, 19, -0.01898151, -0.94288152, -0.34814918, -0.53089458, 0.65380424, 0.36583662, 14.30698395, -64.65126801, 43.65019608, 69.39834595, -1.34851110, -175.95983887, -0.03567383, 0.01039656, -0.56921536, -0.82134843, -0.00454330, 0.00707698, -0.00358418, 87.59300232, 1211.47338867, 39.12999725, 0.00000000
1, 0.2000, 20, -0.02016358, -0.94237709, -0.34837389, -0.76530367, 0.63310325, 0.47158849, 14.56293774, -66.10257721, 43.47890854, 69.39051056, -1.35069668, -175.95227051, -0.03573977, 0.01041614, -0.56915897, -0.82138443, -0.00339266, 0.00661866, -0.00348020, 87.59300232, 1211.47338867, 39.12999725, 0.00000000
1, 0.2100, 21, -0.01905525, -0.94375706, -0.34877163, -0.96187723, 0.71903884, 0.36852688, 13.68538952, -64.65126801, 42.92698288, 69.38248444, -1.34483671, -175.96623230, -0.03561121, 0.01038623, -0.56910151, -0.82143009, -0.00449603, 0.00805007, -0.00321945, 87.59300232, 1211.47338867, 39.12999725, 0.00000000
1, 0.2200, 22, -0.01948329, -0.94561040, -0.34958959, -0.83702993, 0.63254052, 0.47179618, 13.68538952, -64.65126801, 42.92698288, 69.37393188, -1.34702396, -175.95866394, -0.03567720, 0.01040554, -0.56904000, -0.82146972, -0.00401047, 0.00994927, -0.00252713, 87.59300232, 1211.47338867, 39.12999725, 0.00000000
1, 0.2300, 23, -0.01928558, -0.94602430, -0.35023654, -0.94278169, 0.56451809, 0.38279819, 13.57569790, -64.78320312, 42.71763229, 69.36434937, -1.34861660, -175.95202637, -0.03573351, 0.01042406, -0.56897098, -0.82151479, -0.00423857, 0.01042257, -0.00203602, 87.59300232, 1211.47338867, 39.12999725, 0.00000000
1, 0.2400, 24, -0.01954704, -0.94479883, -0.35087675, -0.87128180, 0.61682564, 0.36610076, 14.12416077, -65.39891052, 43.45987701, 69.35546875, -1.34986818, -175.94496155, -0.03579117, 0.01044739, -0.56890690, -0.82155633, -0.00401010, 0.00925237, -0.00154047, 87.59300232, 1211.47338867, 39.12999725, 0.00000000
1, 0.2500, 25, -0.02020089, -0.94210708, -0.34812620, -0.92405277, 0.53092629, 0.34687802, 13.86821175, -66.32247925, 43.74535370, 69.34608459, -1.35124183, -175.93876648, -0.03584324, 0.01046534, -0.56883931, -0.82160062, -0.00337040, 0.00661708, -0.00444011, 87.59300232, 1211.47338867, 39.12999725, 0.00000000
1, 0.2600, 26, -0.02063256, -0.94090819, -0.34326091, -0.76346612, 0.56592494, 0.38227907, 14.38011456, -66.32247925, 43.21246338, 69.35478973, -1.34906340, -175.95352173, -0.03572588, 0.01041045, -0.56890267, -0.82156265, -0.00295293, 0.00544636, -0.00937896, 87.59300232, 1211.47338867, 39.12999725, 0.00000000
1, 0.2700, 27, -0.02179650, -0.94024396, -0.34591493, -0.38292179, 0.74550796, 0.20498697, 14.38011456, -66.32247925, 43.21246338, 69.35077667, -1.34835351, -175.94581604, -0.03577794, 0.01045253, -0.56887305, -0.82158029, -0.00173954, 0.00474094, -0.00661894, 87.59300232, 1211.47338867, 39.12999725, 0.00000000
1, 0.2800, 28, -0.02151890, -0.94064957, -0.34505329, -0.37583154, 0.52704984, 0.05562602, 14.16072655, -64.82717896, 43.17439651, 69.34690857, -1.34701502, -175.94068909, -0.03580843, 0.01048638, -0.56884456, -0.82159829, -0.00199556, 0.00516695, -0.00753605, 87.59300232, 1211.47338867, 39.12999725, 0.00000000
1, 0.2900, 29, -0.02074280, -0.94176817, -0.34689897, -0.58881158, 0.57997191, -0.13597114, 14.01446915, -64.60728455, 43.32665253, 69.34090424, -1.34369683, -175.93574524, -0.03582801, 0.01053288, -0.56880039, -0.82162738, -0.00273052, 0.00631270, -0.00576542, 87.59300232, 1211.47338867, 39.12999725, 0.00000000
1, 0.3000, 30, -0.01892019, -0.94542885, -0.34699759, -0.55464602, 0.57824749, -0.01306375, 14.30698395, -66.05860138, 43.65019608, 69.33523560, -1.34153450, -175.93037415, -0.03585629, 0.01057325, -0.56875885, -0.82165438, -0.00450689, 0.01001075, -0.00576887, 87.59300232, 1211.47338867, 39.12999725, 0.00000000
1, 0.3100, 31, -0.01810766, -0.94571573, -0.34739077, -0.50237638, 0.61154234, 0.07536787, 14.52637196, -64.69524384, 43.78342438, 69.34201813, -1.32640553, -175.94734192, -0.03565902, 0.01059970, -0.56880611, -0.82163000, -0.00522647, 0.01031087, -0.00541690, 87.59300232, 1211.47338867, 39.12999725, 0.00000000
1, 0.3200, 32, -0.01649787, -0.94572192, -0.34743476, -0.59137166, 0.40357292, 0.15915941, 14.52637196, -64.69524384, 43.78342438, 69.33599854, -1.32647049, -175.94300842, -0.03569100, 0.01061889, -0.56876254, -0.82165849, -0.00665219, 0.01029353, -0.00532255, 87.59300232, 1211.47338867, 39.12999725, 0.00000000
1, 0.3300, 33, -0.01667642, -0.94357216, -0.34862128, -0.50270510, 0.59381652, 0.11015284, 14.63606358, -63.63974380, 43.40278244, 69.33083344, -1.32540560, -175.93705750, -0.03572883, 0.01065444, -0.56872475, -0.82168245, -0.00646800, 0.00817670, -0.00422373, 87.59300232, 1211.47338867, 39.12999725, 0.00000000
1, 0.3400, 34, -0.01732245, -0.94467801, -0.35066697, -0.48355591, 0.35267216, 0.17533769, 14.34354877, -64.69524384, 43.11729813, 69.32590485, -1.32580042, -175.93313599, -0.03575936, 0.01066952, -0.56868917, -0.82170570, -0.00581060, 0.00931306, -0.00225965, 87.59300232, 1211.47338867, 39.12999725, 0.00000000
1, 0.3500, 35, -0.01767296, -0.94193530, -0.35092804, -0.33987719, 0.30205277, 0.19141217, 15.07484055, -65.35493469, 43.04117203, 69.32242584, -1.32652414, -175.92964172, -0.03578838, 0.01068062, -0.56866395, -0.82172155, -0.00547137, 0.00659610, -0.00206620, 87.59300232, 1211.47338867, 39.12999725, 0.00000000
1, 0.3600, 36, -0.02026145, -0.94298917, -0.35028699, -0.37440398, 0.18198854, 0.17141528, 14.56293774, -65.70676422, 43.66922760, 69.32127380, -1.32350612, -175.95010376, -0.03562675, 0.01060033, -0.56865704, -0.82173455, -0.00287886, 0.00766841, -0.00275636, 87.59300232, 1211.47338867, 39.12999725, 0.00000000
1, 0.3700, 37, -0.02122704, -0.94162953, -0.34844166, -0.24832790, 0.14895433, 0.15275663, 14.56293774, -65.70676422, 43.66922760, 69.31873322, -1.32440841, -175.94818115, -0.03564531, 0.01060266, -0.56863886, -0.82174629, -0.00188596, 0.00631253, -0.00461366, 87.59300232, 1211.47338867, 39.12999725, 0.00000000
1, 0.3800, 38, -0.02111106, -0.94526148, -0.34806645, -0.42615113, 0.01061184, 0.13281403, 14.96514320, -65.92666626, 43.21246338, 69.31446838, -1.32561338, -175.94760132, -0.03565575, 0.01059551, -0.56860846, -0.82176697, -0.00201375, 0.00996977, -0.00505485, 87.59300232, 1211.47338867, 39.12999725, 0.00000000
1, 0.3900, 39, -0.02143179, -0.94704986, -0.34706745, -0.21433978, 0.35506898, 0.15698600, 14.74575996, -65.35493469, 43.70729446, 69.31224060, -1.32582712, -175.94372559, -0.03568482, 0.01061251, -0.56859213, -0.82177681, -0.00170340, 0.01177841, -0.00610698, 87.59300232, 1211.47338867, 39.12999725, 0.00000000
1, 0.4000, 40, -0.02113405, -0.94546658, -0.34862199, -0.33937573, 0.35465729, 0.12220333, 14.56293774, -64.34340668, 43.11729813, 69.30875397, -1.32571661, -175.93998718, -0.03571149, 0.01063083, -0.56856680, -0.82179296, -0.00200026, 0.01020838, -0.00458740, 87.59300232, 1211.47338867, 39.12999725, 0.00000000
1, 0.4100, 41, -0.02122549, -0.94533986, -0.34902209, -0.46509051, 0.50948018, 0.03795140, 14.38011456, -65.04708099, 43.11729813, 69.31542969, -1.31652284, -175.95845032, -0.03553282, 0.01060721, -0.56861448, -0.82176793, -0.00186384, 0.01009095, -0.00421514, 87.59300232, 1211.47338867, 39.12999725, 0.00000000
1, 0.4200, 42, -0.02193084, -0.94455367, -0.35123947, -0.70210236, 0.69375271, 0.20075552, 14.38011456, -65.04708099, 43.11729813, 69.30824280, -1.31594992, -175.95124817, -0.03558229, 0.01064482, -0.56856221, -0.82180154, -0.00103691, 0.00928807, -0.00196125, 87.59300232, 1211.47338867, 39.12999725, 0.00000000
1, 0.4300, 43, -0.02148879, -0.94264263, -0.35217476, -0.93441534, 0.65819144, 0.16556214, 15.11140537, -65.92666626, 43.09827042, 69.29874420, -1.31517279, -175.94450378, -0.03562769, 0.01068091, -0.56849331, -0.82184666, -0.00146807, 0.00742914, -0.00116457, 87.59300232, 1211.47338867, 39.12999725, 0.00000000
1, 0.4400, 44, -0.02077433, -0.93973446, -0.35423839, -0.70157331, 0.62460148, 0.02571440, 14.56293774, -66.32247925, 43.57406616, 69.29159546, -1.31320536, -175.93856812, -0.03566118, 0.01072225, -0.56844109, -0.82188082, -0.00215629, 0.00457567, 0.00075267, 87.59300232, 1211.47338867, 39.12999725, 0.00000000
1, 0.4500, 45, -0.02055733, -0.93919700, -0.35527828, -0.29224893, 0.15478186, 0.00359845, 15.44048595, -65.31095886, 43.57406616, 69.28863525, -1.31269121, -175.93711853, -0.03566939, 0.01073226, -0.56841964, -0.82189518, -0.00235728, 0.00406371, 0.00172418, 87.59300232, 1211.47338867, 39.12999725, 0.00000000
1, 0.4600, 46, -0.02092291, -0.93783718, -0.35484177, -0.30859038, 0.32989407, -0.22118808, 14.23385715, -65.00309753, 43.15536499, 69.27658081, -1.30382717, -175.95700073, -0.03548388, 0.01069344, -0.56833327, -0.82196337, -0.00192495, 0.00273271, 0.00120687, 87.59300232, 1211.47338867, 39.12999725, 0.00000000
1, 0.4700, 47, -0.02067939, -0.93711919, -0.35569549, 0.01230776, 0.29554194, -0.06468733, 14.23385715, -63.81566238, 42.92698288, 69.27664948, -1.30217624, -175.95448303, -0.03549388, 0.01071789, -0.56833321, -0.82196277, -0.00205724, 0.00206289, 0.00192614, 87.59300232, 1211.47338867, 39.12999725, 0.00000000
1, 0.4800, 48, -0.01888882, -0.93779594, -0.35755762, -0.09694687, 0.39675477, -0.00949026, 14.23385715, -63.81566238, 42.92698288, 69.27559662, -1.30068350, -175.95079041, -0.03551297, 0.01074651, -0.56832498, -0.82196718, -0.00382008, 0.00274269, 0.00377835, 87.59300232, 1211.47338867, 39.12999725, 0.00000000
1, 0.4900, 49, -0.01988598, -0.93659478, -0.35534459, -0.15337659, 0.49724352, 0.11584318, 14.70919418, -64.60728455, 43.66922760, 69.27393341, -1.30000675, -175.94573975, -0.03554609, 0.01077596, -0.56831253, -0.82197410, -0.00280930, 0.00154713, 0.00154970, 87.59300232, 1211.47338867, 39.12999725, 0.00000000
1, 0.5000, 50, -0.02027737, -0.93764740, -0.35467952, 0.11554326, 0.58597732, 0.06415095, 14.30698395, -64.87116241, 43.74535370, 69.27494812, -1.29853225, -175.94001770, -0.03557963, 0.01081517, -0.56831896, -0.82196766, -0.00239073, 0.00260441, 0.00087041, 87.59300232, 1211.47338867, 39.12999725, 0.00000000
1, 0.5100, 51, -0.02110011, -0.93776125, -0.35598159, 0.09757424, 0.72449160, -0.02077356, 14.34354877, -66.36645508, 43.82148361, 69.27015686, -1.29361248, -175.95465088, -0.03545075, 0.01077643, -0.56828493, -0.82199717, -0.00152420, 0.00271679, 0.00217355, 87.59300232, 1211.47338867, 39.12999725, 0.00000000
1, 0.5200, 52, -0.02007105, -0.93901801, -0.35456401, 0.05963093, 0.79110199, 0.08621281, 13.79508114, -66.49839020, 43.63116455, 69.27057648, -1.29161894, -175.94694519, -0.03549612, 0.01082908, -0.56828684, -0.82199323, -0.00247810, 0.00399455, 0.00069577, 87.59300232, 1211.47338867, 39.12999725, 0.00000000
1, 0.5300, 53, -0.01896034, -0.93872523, -0.35470361, 0.27326852, 0.77363163, 0.20823994, 13.79508114, -66.49839020, 43.63116455, 69.27313232, -1.29082775, -175.93896484, -0.03554915, 0.01087510, -0.56830424, -0.82197827, -0.00357318, 0.00369088, 0.00086312, 87.59300232, 1211.47338867, 39.12999725, 0.00000000
1, 0.5400, 54, -0.01766597, -0.93991339, -0.35549796, 0.16960178, 0.39599958, 0.16546130, 14.41668034, -65.04708099, 43.42181396, 69.27473450, -1.29097414, -175.93467712, -0.03558050, 0.01089582, -0.56831539, -0.82196903, -0.00486250, 0.00486721, 0.00168861, 87.59300232, 1211.47338867, 39.12999725, 0.00000000
1, 0.5500, 55, -0.01741202, -0.94039500, -0.35171413, 0.42440763, 0.27269518, 0.05442246, 14.16072655, -65.35493469, 43.42181396, 69.27891541, -1.29051757, -175.93193054, -0.03559752, 0.01091400, -0.56834501, -0.82194757, -0.00511569, 0.00532758, -0.00203905, 87.59300232, 1211.47338867, 39.12999725, 0.00000000
1, 0.5600, 56, -0.01641603, -0.94084024, -0.35155264, 0.63899893, 0.20433955, 0.14022027, 13.83164692, -64.51932526, 43.44084167, 69.29005432, -1.27771628, -175.95237732, -0.03538654, 0.01090801, -0.56842428, -0.82190186, -0.00605228, 0.00573301, -0.00209924, 87.59300232, 1211.47338867, 39.12999725, 0.00000000
1, 0.5700, 57, -0.01535456, -0.94058239, -0.34947771, 0.71375912, 0.08712531, -0.00309923, 14.01446915, -64.29943085, 43.76438904, 69.29716492, -1.27737856, -175.95156860, -0.03538995, 0.01091662, -0.56847513, -0.82186639, -0.00693782, 0.00540517, -0.00400030, 87.59300232, 1211.47338867, 39.12999725, 0.00000000
1, 0.5800, 58, -0.01503938, -0.94311410, -0.34909239, 0.69799882, -0.20518559, 0.02596016, 14.01446915, -64.29943085, 43.76438904, 69.30418396, -1.27834642, -175.95339966, -0.03538096, 0.01090277, -0.56852585, -0.82183188, -0.00726149, 0.00789313, -0.00426918, 87.59300232, 1211.47338867, 39.12999725, 0.00000000
1, 0.5900, 59, -0.01380461, -0.94461280, -0.34958196, 0.71927691, -0.35712749, -0.11792585, 14.12416077, -66.93818665, 44.22116089, 69.31146240, -1.27850521, -175.95715332, -0.03535410, 0.01088523, -0.56857848, -0.82179689, -0.00851000, 0.00934857, -0.00366422, 87.59300232, 1211.47338867, 39.12999725, 0.00000000
1, 0.6000, 60, -0.01251357, -0.94398212, -0.34971717, 0.73806000, -0.47734278, -0.10293235, 14.23385715, -65.97064209, 43.82148361, 69.31895447, -1.27922833, -175.96197510, -0.03532234, 0.01085838, -0.56863278, -0.82176113, -0.00980539, 0.00867206, -0.00340758, 87.59300232, 1211.47338867, 39.12999725, 0.00000000
1, 0.6100, 61, -0.01533490, -0.94289929, -0.34749413, 0.52756363, -0.75089645, -0.26624423, 14.08759975, -64.87116241, 43.45987701, 69.33362579, -1.27093256, -175.99243164, -0.03506151, 0.01077132, -0.56873930, -0.82169968, -0.00695038, 0.00753658, -0.00549319, 87.59300232, 1211.47338867, 39.12999725, 0.00000000
1, 0.6200, 62, -0.01589571, -0.94461441, -0.34751254, 0.33232629, -0.78474367, -0.38940656, 14.34354877, -65.09105682, 43.28859329, 69.33715057, -1.27005792, -176.00114441, -0.03499432, 0.01073540, -0.56876516, -0.82168514, -0.00627282, 0.00917834, -0.00528755, 87.59300232, 1211.47338867, 39.12999725, 0.00000000
1, 0.6300, 63, -0.01506017, -0.94466472, -0.34741145, 0.22683810, -1.04316592, -0.37693849, 14.34354877, -65.09105682, 43.28859329, 69.33965302, -1.27021098, -176.01223755, -0.03491530, 0.01068000, -0.56878424, -0.82167608, -0.00710684, 0.00921217, -0.00534490, 87.59300232, 1211.47338867, 39.12999725, 0.00000000
1, 0.6400, 64, -0.01678529, -0.94552320, -0.34675959, 0.19260265, -1.00684929, -0.51669669, 13.90477753, -65.26697540, 42.92698288, 69.34182739, -1.26892793, -176.02348328, -0.03482808, 0.01063403, -0.56880051, -0.82166892, -0.00536875, 0.01005562, -0.00595784, 87.59300232, 1211.47338867, 39.12999725, 0.00000000
1, 0.6500, 65, -0.01745766, -0.94473279, -0.34922275, 0.08381689, -0.95709467, -0.46258283, 13.97790337, -66.36645508, 43.57406616, 69.34289551, -1.26797605, -176.03407288, -0.03474733, 0.01058862, -0.56880903, -0.82166713, -0.00467715, 0.00925790, -0.00347652, 87.59300232, 1211.47338867, 39.12999725, 0.00000000
1, 0.6600, 66, -0.01716314, -0.94459945, -0.34771088, 0.06800289, -1.16278219, -0.48443714, 14.01446915, -67.46593475, 43.53600693, 69.35123444, -1.26121509, -176.06764221, -0.03447235, 0.01047301, -0.56887054, -0.82163751, -0.00493147, 0.00910358, -0.00493544, 87.59300232, 1211.47338867, 39.12999725, 0.00000000
1, 0.6700, 67, -0.01761767, -0.94222450, -0.34597582, 0.03058214, -1.23425364, -0.32762042, 14.52637196, -65.57482910, 43.80245209, 69.35182190, -1.26250112, -176.08035278, -0.03438755, 0.01040087, -0.56887615, -0.82163811, -0.00440618, 0.00668976, -0.00657168, 87.59300232, 1211.47338867, 39.12999725, 0.00000000
1, 0.6800, 68, -0.01743779, -0.94305348, -0.34739512, 0.04888004, -1.35504198, -0.27748093, 14.52637196, -65.57482910, 43.80245209, 69.35260773, -1.26468217, -176.09402466, -0.03430033, 0.01031763, -0.56888348, -0.82163775, -0.00461953, 0.00751655, -0.00514439, 87.59300232, 1211.47338867, 39.12999725, 0.00000000
1, 0.6900, 69, -0.01691266, -0.94716883, -0.34692660, 0.10574628, -1.61105180, -0.33577219, 14.16072655, -67.50991058, 43.30761719, 69.35403442, -1.26722062, -176.11029053, -0.03419617, 0.01021910, -0.56889564, -0.82163489, -0.00518322, 0.01162568, -0.00559436, 87.59300232, 1211.47338867, 39.12999725, 0.00000000
1, 0.7000, 70, -0.01964681, -0.94553024, -0.34506783, 0.31846258, -1.47357404, -0.24564116, 13.94133854, -64.16749573, 43.32665253, 69.35753632, -1.27011633, -176.12493896, -0.03410511, 0.01012659, -0.56892258, -0.82162118, -0.00250051, 0.00996979, -0.00740387, 87.59300232, 1211.47338867, 39.12999725, 0.00000000
1, 0.7100, 71, -0.02001605, -0.94678730, -0.34298864, 0.19366904, -1.47369933, -0.29799691, 13.90477753, -64.60728455, 43.93567276, 69.37374115, -1.26983714, -176.16101074, -0.03384373, 0.00995433, -0.56904191, -0.82155150, -0.00216701, 0.01118761, -0.00937659, 87.59300232, 1211.47338867, 39.12999725, 0.00000000
1, 0.7200, 72, -0.02070930, -0.94701403, -0.34475166, -0.19988784, -1.57971096, -0.29902142, 13.83164692, -65.04708099, 43.95470810, 69.37210083, -1.27260399, -176.17684937, -0.03374402, 0.00985533, -0.56903207, -0.82156366, -0.00148385, 0.01135114, -0.00744480, 87.59300232, 1211.47338867, 39.12999725, 0.00000000
1, 0.7300, 73, -0.02069528, -0.94881284, -0.34670278, -0.41768560, -1.42845702, -0.20728348, 13.83164692, -65.04708099, 43.95470810, 69.36823273, -1.27569616, -176.19094849, -0.03365858, 0.00976198, -0.56900603, -0.82158619, -0.00154655, 0.01317179, -0.00554872, 87.59300232, 1211.47338867, 39.12999725, 0.00000000
1, 0.7400, 74, -0.02272678, -0.94788116, -0.34973362, -0.52565753, -1.36040342, -0.22310074, 13.97790337, -65.79473114, 43.95470810, 69.36328888, -1.27840257, -176.20446777, -0.03357548, 0.00967398, -0.56897223, -0.82161415, 0.00043390, 0.01226889, -0.00259104, 87.59300232, 1211.47338867, 39.12999725, 0.00000000
1, 0.7500, 75, -0.02305534, -0.94402510, -0.35100183, -0.42021832, -1.25807548, -0.13338047, 13.86821175, -64.47534943, 43.68825912, 69.35935211, -1.28158855, -176.21672058, -0.03350380, 0.00958917, -0.56894565, -0.82163644, 0.00071374, 0.00843866, -0.00138839, 87.59300232, 1211.47338867, 39.12999725, 0.00000000
1, 0.7600, 76, -0.02389992, -0.94200969, -0.35004279, -0.79338115, -1.49973595, -0.22521080, 13.57569790, -64.47534943, 43.72632980, 69.35070801, -1.28639340, -176.25167847, -0.03327772, 0.00937864, -0.56888735, -0.82168835, 0.00149324, 0.00646502, -0.00245412, 87.59300232, 1211.47338867, 39.12999725, 0.00000000
1, 0.7700, 77, -0.02338559, -0.94287139, -0.34705880, -0.83002567, -1.41425347, -0.22330149, 14.41668034, -65.09105682, 43.66922760, 69.34272003, -1.28929186, -176.26570129, -0.03319217, 0.00928591, -0.56883180, -0.82173145, 0.00090666, 0.00738196, -0.00558020, 87.59300232, 1211.47338867, 39.12999725, 0.00000000
1, 0.7800, 78, -0.02143281, -0.94208300, -0.34887794, -0.47377038, -1.25821114, -0.15079775, 14.05103493, -66.58635712, 43.51697159, 69.33827209, -1.29232061, -176.27801514, -0.03311928, 0.00920179, -0.56880146, -0.82175630, -0.00110032, 0.00663267, -0.00386117, 87.59300232, 1211.47338867, 39.12999725, 0.00000000
1, 0.7900, 79, -0.02171488, -0.94187421, -0.34884876, -0.34857813, -1.27495205, -0.11637617, 14.05103493, -66.58635712, 43.51697159, 69.33506775, -1.29573083, -176.29034424, -0.03304793, 0.00911513, -0.56878006, -0.82177490, -0.00087202, 0.00644623, -0.00394633, 87.59300232, 1211.47338867, 39.12999725, 0.00000000
1, 0.8000, 80, -0.02254534, -0.94367093, -0.34976298, -0.51140100, -1.22590625, -0.04453357, 14.16072655, -64.95912170, 43.40278244, 69.33022308, -1.29964089, -176.30198669, -0.03298429, 0.00902795, -0.56874686, -0.82180142, -0.00011270, 0.00826839, -0.00309511, 87.59300232, 1211.47338867, 39.12999725, 0.00000000
1, 0.8100, 81, -0.02176421, -0.94547051, -0.35093656, -0.77910864, -1.31320727, -0.08070643, 14.19729233, -65.61880493, 43.34568787, 69.32310486, -1.30371904, -176.33526611, -0.03276635, 0.00883145, -0.56869918, -0.82184529, -0.00096342, 0.01011035, -0.00202908, 87.59300232, 1211.47338867, 39.12999725, 0.00000000
1, 0.8200, 82, -0.02090304, -0.94455743, -0.35199749, -0.86718726, -1.43340695, -0.11812061, 14.34354877, -64.91514587, 43.25052261, 69.31475067, -1.30767596, -176.34909058, -0.03268740, 0.00873203, -0.56864101, -0.82188976, -0.00189236, 0.00924492, -0.00109009, 87.59300232, 1211.47338867, 39.12999725, 0.00000000
1, 0.8300, 83, -0.02111906, -0.94358659, -0.35386977, -1.06577110, -1.31517172, -0.09744891, 14.41668034, -64.60728455, 43.42181396, 69.30438232, -1.31141067, -176.36174011, -0.03261595, 0.00863949, -0.56856817, -0.82194388, -0.00174669, 0.00833631, 0.00062193, 87.59300232, 1211.47338867, 39.12999725, 0.00000000
1, 0.8400, 84, -0.02385213, -0.94314849, -0.35718870, -1.32992184, -1.65833151, -0.22690336, 14.41668034, -64.60728455, 43.42181396, 69.29144287, -1.31515014, -176.37806702, -0.03251840, 0.00852802, -0.56847727, -0.82201189, 0.00092940, 0.00797407, 0.00374364, 87.59300232, 1211.47338867, 39.12999725, 0.00000000
1, 0.8500, 85, -0.02577700, -0.94205898, -0.35849419, -1.09698403, -1.69138134, -0.19315432, 14.41668034, -67.07012177, 43.74535370, 69.28086090, -1.31932557, -176.39457703, -0.03242144, 0.00841315, -0.56840324, -0.82206804, 0.00278196, 0.00695881, 0.00485738, 87.59300232, 1211.47338867, 39.12999725, 0.00000000
1, 0.8600, 86, -0.02660119, -0.94330055, -0.35389683, -0.64701331, -1.73788977, -0.28340051, 14.52637196, -65.83870697, 43.53600693, 69.27476501, -1.32774997, -176.43202209, -0.03219488, 0.00816517, -0.56836373, -0.82210684, 0.00351791, 0.00825036, 0.00013373, 87.59300232, 1211.47338867, 39.12999725, 0.00000000
1, 0.8700, 87, -0.02831724, -0.94454515, -0.34995538, -0.32586145, -1.47720611, -0.33163753, 14.78232574, -66.63032532, 43.13633347, 69.27186584, -1.32987583, -176.44702148, -0.03209805, 0.00807472, -0.56834430, -0.82212496, 0.00512246, 0.00952154, -0.00387074, 87.59300232, 1211.47338867, 39.12999725, 0.00000000
1, 0.8800, 88, -0.02879571, -0.94448972, -0.35202169, -0.55923063, -1.53135288, -0.27932692, 13.94133854, -66.14656067, 43.57406616, 69.26663208, -1.33268404, -176.46234131, -0.03200245, 0.00797714, -0.56830823, -0.82215446, 0.00556020, 0.00949033, -0.00186577, 87.59300232, 1211.47338867, 39.12999725, 0.00000000
1, 0.8900, 89, -0.02705145, -0.94626778, -0.35367686, -0.81082767, -1.49930370, -0.26030496, 13.94133854, -66.14656067, 43.57406616, 69.25886536, -1.33555770, -176.47729492, -0.03190998, 0.00788022, -0.56825405, -0.82219654, 0.00376259, 0.01130988, -0.00031660, 87.59300232, 1211.47338867, 39.12999725, 0.00000000
1, 0.9000, 90, -0.02613446, -0.94628030, -0.35594383, -1.22705269, -1.24696696, -0.14825641, 14.05103493, -64.95912170, 43.47890854, 69.24687195, -1.33858824, -176.48948669, -0.03183834, 0.00779469, -0.56816936, -0.82225865, 0.00279652, 0.01138987, 0.00177543, 87.59300232, 1211.47338867, 39.12999725, 0.00000000
1, 0.9100, 91, -0.02481925, -0.94368452, -0.35892615, -1.51579535, -1.18203974, -0.05811635, 14.08759975, -64.65126801, 43.44084167, 69.22522736, -1.34377539, -176.52104187, -0.03163907, 0.00759503, -0.56801695, -0.82237339, 0.00140831, 0.00889264, 0.00450267, 87.59300232, 1211.47338867, 39.12999725, 0.00000000
1, 0.9200, 92, -0.02469363, -0.93921274, -0.36015421, -1.75256968, -0.75476277, -0.06598720, 14.30698395, -64.07953644, 43.53600693, 69.20787811, -1.34583628, -176.52832031, -0.03159808, 0.00753930, -0.56789327, -0.82246101, 0.00122108, 0.00455391, 0.00538389, 87.59300232, 1211.47338867, 39.12999725, 0.00000000
1, 0.9300, 93, -0.02398007, -0.93555301, -0.36350474, -1.97496390, -0.31420407, 0.17247349, 14.67262936, -65.66278839, 43.13633347, 69.18817902, -1.34856451, -176.53065491, -0.03159618, 0.00750275, -0.56775242, -0.82255852, 0.00046567, 0.00101289, 0.00842461, 87.59300232, 1211.47338867, 39.12999725, 0.00000000
1, 0.9400, 94, -0.02607100, -0.93190378, -0.36094761, -1.81117082, -0.36210382, 0.03033883, 14.67262936, -65.66278839, 43.13633347, 69.17014313, -1.35013497, -176.53393555, -0.03158160, 0.00747026, -0.56762338, -0.82264841, 0.00252501, -0.00251989, 0.00556344, 87.59300232, 1211.47338867, 39.12999725, 0.00000000
1, 0.9500, 95, -0.02407798, -0.93027651, -0.36177570, -1.63464665, -0.24263342, 0.15535857, 13.94133854, -64.47534943, 43.30761719, 69.15383148, -1.35244989, -176.53564453, -0.03158180, 0.00744064, -0.56750685, -0.82272923, 0.00049051, -0.00403805, 0.00610765, 87.59300232, 1211.47338867, 39.12999725, 0.00000000
1, 0.9600, 96, -0.02573275, -0.93071014, -0.36290455, -1.38373959, -0.41419736, 0.27403197, 13.61225796, -65.39891052, 43.15536499, 69.12266541, -1.35921180, -176.55799866, -0.03145684, 0.00727288, -0.56728554, -0.82288808, 0.00207511, -0.00348765, 0.00693420, 87.59300232, 1211.47338867, 39.12999725, 0.00000000
1, 0.9700, 97, -0.02526896, -0.93230951, -0.36352631, -1.02210689, -0.63322353, 0.19800752, 13.83164692, -63.94759750, 43.04117203, 69.11257172, -1.36331916, -176.56320190, -0.03144036, 0.00721480, -0.56721401, -0.82293850, 0.00150427, -0.00173202, 0.00715353, 87.59300232, 1211.47338867, 39.12999725, 0.00000000
1, 0.9800, 98, -0.02498648, -0.93201536, -0.36453646, -0.87643397, -0.76817405, 0.12441138, 13.97790337, -64.16749573, 43.34568787, 69.10397339, -1.36722052, -176.56993103, -0.03141181, 0.00715107, -0.56715322, -0.82298195, 0.00115138, -0.00196455, 0.00800683, 87.59300232, 1211.47338867, 39.12999725, 0.00000000
1, 0.9900, 99, -0.02318194, -0.93171436, -0.36257622, -0.82045174, -1.00789082, 0.11920033, 13.97790337, -64.16749573, 43.34568787, 69.09597778, -1.37192965, -176.57893372, -0.03137100, 0.00707053, -0.56709719, -0.82302296, -0.00073065, -0.00221723, 0.00592518, 87.59300232, 1211.47338867, 39.12999725, 0.00000000
1, 1.0000, 100, -0.02408575, -0.93359649, -0.36198416, -0.51336235, -1.03751218, -0.02298853, 14.38011456, -65.92666626, 43.30761719, 69.09108734, -1.37541723, -176.58869934, -0.03131832, 0.00699575, -0.56706315, -0.82304901, 0.00010275, -0.00029215, 0.00522532, 87.59300232, 1211.47338867, 39.12999725, 0.00000000
1, 1.0100, 101, -0.02417319, -0.93383873, -0.36217150, -0.24428648, -0.96593112, -0.07504189, 14.23385715, -64.29943085, 43.91664886, 69.07065582, -1.37789190, -176.61871338, -0.03111625, 0.00682393, -0.56691855, -0.82315767, 0.00013873, -0.00000186, 0.00529040, 87.59300232, 1211.47338867, 39.12999725, 0.00000000
1, 1.0200, 102, -0.02353085, -0.93384320, -0.36127225, -0.18754411, -1.10072553, -0.20109755, 14.30698395, -64.25545502, 43.61213303, 69.06903839, -1.37994540, -176.62971497, -0.03104746, 0.00675430, -0.56690800, -0.82316822, -0.00054120, 0.00009914, 0.00414122, 87.59300232, 1211.47338867, 39.12999725, 0.00000000
1, 1.0300, 103, -0.02245542, -0.93576092, -0.36044347, -0.29260081, -1.27195108, -0.27468917, 14.12416077, -64.03556061, 43.09827042, 69.06642914, -1.38192403, -176.64257812, -0.03096497, 0.00667573, -0.56689024, -0.82318407, -0.00164921, 0.00203069, 0.00327852, 87.59300232, 1211.47338867, 39.12999725, 0.00000000
1, 1.0400, 104, -0.02275396, -0.93895119, -0.35945424, -0.29433587, -1.13530207, -0.23665437, 14.27041817, -63.63974380, 42.73666000, 69.06375885, -1.38376975, -176.65403748, -0.03089198, 0.00660508, -0.56687200, -0.82319999, -0.00138352, 0.00523987, 0.00224207, 87.59300232, 1211.47338867, 39.12999725, 0.00000000
1, 1.0500, 105, -0.02267963, -0.94263524, -0.35772604, -0.22238342, -1.18648398, -0.22037227, 14.27041817, -63.63974380, 42.73666000, 69.06182098, -1.38595104, -176.66590881, -0.03081758, 0.00653015, -0.56685907, -0.82321227, -0.00149208, 0.00893787, 0.00047962, 87.59300232, 1211.47338867, 39.12999725, 0.00000000
1, 1.0600, 106, -0.02185422, -0.94579017, -0.35795504, -0.32794154, -1.41031420, -0.22475500, 14.63606358, -63.59576416, 43.32665253, 69.05968475, -1.38285339, -176.70210266, -0.03054230, 0.00637276, -0.56684536, -0.82323325, -0.00233586, 0.01210667, 0.00067383, 87.59300232, 1211.47338867, 39.12999725, 0.00000000
1, 1.0700, 107, -0.02227638, -0.94602680, -0.35882285, -0.32804412, -1.47978497, -0.17348029, 14.27041817, -64.34340668, 43.38374710, 69.05676270, -1.38652253, -176.71655273, -0.03045682, 0.00627415, -0.56682569, -0.82325071, -0.00189649, 0.01235794, 0.00150224, 87.59300232, 1211.47338867, 39.12999725, 0.00000000
1, 1.0800, 108, -0.02179676, -0.94686967, -0.35906979, -0.55746293, -1.56393921, -0.38548732, 14.08759975, -64.29943085, 42.94601059, 69.05157471, -1.38851273, -176.73254395, -0.03035207, 0.00617938, -0.56678957, -0.82328016, -0.00242345, 0.01322779, 0.00168163, 87.59300232, 1211.47338867, 39.12999725, 0.00000000
1, 1.0900, 109, -0.02199703, -0.94397616, -0.35908201, -0.89911157, -1.75844479, -0.19516966, 13.72195435, -66.63032532, 42.81278610, 69.04299927, -1.39297783, -176.74966431, -0.03025155, 0.00606032, -0.56672955, -0.82332611, -0.00227921, 0.01038082, 0.00157618, 87.59300232, 1211.47338867, 39.12999725, 0.00000000
1, 1.1000, 110, -0.02428010, -0.93931103, -0.36128882, -0.91496307, -1.82547724, -0.30200037, 13.72195435, -66.63032532, 42.81278610, 69.03427887, -1.39668751, -176.76780701, -0.03014005, 0.00594168, -0.56666839, -0.82337314, -0.00007099, 0.00577238, 0.00364005, 87.59300232, 1211.47338867, 39.12999725, 0.00000000
1, 1.1100, 111, -0.02309263, -0.93599790, -0.36149827, -0.98415685, -1.99642158, -0.37569568, 14.12416077, -64.43137360, 43.02214050, 69.01739502, -1.39869976, -176.80834961, -0.02985953, 0.00572234, -0.56654942, -0.82346678, -0.00131278, 0.00252974, 0.00366910, 87.59300232, 1211.47338867, 39.12999725, 0.00000000
1, 1.1200, 112, -0.02424812, -0.93367589, -0.36094040, -1.12530303, -2.11618352, -0.46567324, 13.86821175, -63.59576416, 43.04117203, 69.00666809, -1.40193176, -176.82977295, -0.02972200, 0.00559036, -0.56647378, -0.82352465, -0.00019685, 0.00031029, 0.00284670, 87.59300232, 1211.47338867, 39.12999725, 0.00000000
1, 1.1300, 113, -0.02390906, -0.92961484, -0.36103067, -0.76658529, -2.09593081, -0.48392335, 13.50256634, -64.25545502, 43.49793625, 68.99952698, -1.40492356, -176.85107422, -0.02958398, 0.00546167, -0.56642389, -0.82356477, -0.00059104, -0.00369766, 0.00280245, 87.59300232, 1211.47338867, 39.12999725, 0.00000000
1, 1.1400, 114, -0.02622940, -0.92804277, -0.36039859, -0.42347655, -2.14242363, -0.62657714, 14.01446915, -65.31095886, 43.15536499, 68.99582672, -1.40675211, -176.87333679, -0.02943324, 0.00533757, -0.56639868, -0.82358843, 0.00168931, -0.00523800, 0.00209037, 87.59300232, 1211.47338867, 39.12999725, 0.00000000
1, 1.1500, 115, -0.02696327, -0.92894745, -0.35976696, -0.20849170, -1.98492754, -0.71181536, 14.01446915, -65.31095886, 43.15536499, 68.99427032, -1.40722227, -176.89442444, -0.02928407, 0.00522955, -0.56638843, -0.82360137, 0.00240242, -0.00431697, 0.00141745, 87.59300232, 1211.47338867, 39.12999725, 0.00000000
1, 1.1600, 116, -0.02791073, -0.93337452, -0.36023980, 0.00635843, -2.00096536, -0.67765325, 13.83164692, -66.01461792, 43.21246338, 68.98825073, -1.41228902, -176.93475342, -0.02901942, 0.00499221, -0.56634766, -0.82364035, 0.00332552, 0.00012265, 0.00185946, 87.59300232, 1211.47338867, 39.12999725, 0.00000000
1, 1.1700, 117, -0.02893087, -0.93454903, -0.35819787, 0.41885459, -2.03232145, -0.66199642, 13.72195435, -65.92666626, 42.83182144, 68.99296570, -1.41339517, -176.95611572, -0.02887120, 0.00487991, -0.56638259, -0.82362211, 0.00427429, 0.00130656, -0.00020196, 87.59300232, 1211.47338867, 39.12999725, 0.00000000
1, 1.1800, 118, -0.02714506, -0.93608701, -0.36154315, 0.48922840, -1.96400738, -0.60804063, 14.08759975, -64.16749573, 43.11729813, 68.99835205, -1.41475821, -176.97663879, -0.02873021, 0.00477003, -0.56642240, -0.82360035, 0.00246491, 0.00281613, 0.00321858, 87.59300232, 1211.47338867, 39.12999725, 0.00000000
1, 1.1900, 119, -0.02705098, -0.93888152, -0.36014682, 0.43220603, -1.69084477, -0.54938823, 13.86821175, -64.34340668, 43.15536499, 69.00310516, -1.41568816, -176.99440002, -0.02860696, 0.00467675, -0.56645739, -0.82358110, 0.00235444, 0.00557838, 0.00190753, 87.59300232, 1211.47338867, 39.12999725, 0.00000000
1, 1.2000, 120, -0.02891548, -0.94087464, -0.35919690, 0.45206133, -1.74044299, -0.65596169, 13.86821175, -64.34340668, 43.15536499, 69.00809479, -1.41579950, -177.01300049, -0.02847360, 0.00458521, -0.56649399, -0.82356107, 0.00421017, 0.00754079, 0.00103811, 87.59300232, 1211.47338867, 39.12999725, 0.00000000
1, 1.2100, 121, -0.03011295, -0.93995976, -0.35837266, 0.44887117, -1.60551322, -0.51248866, 13.90477753, -66.01461792, 43.25052261, 69.01043701, -1.42195106, -177.04876709, -0.02824683, 0.00436474, -0.56651306, -0.82355702, 0.00537001, 0.00660095, 0.00028174, 87.59300232, 1211.47338867, 39.12999725, 0.00000000
1, 1.2200, 122, -0.03115549, -0.94093037, -0.35771409, 0.53511268, -1.41813517, -0.38576502, 14.59950256, -64.16749573, 43.30761719, 69.01615906, -1.42342818, -177.06340027, -0.02814879, 0.00428321, -0.56655490, -0.82353199, 0.00632638, 0.00754978, -0.00031429, 87.59300232, 1211.47338867, 39.12999725, 0.00000000
1, 1.2300, 123, -0.02970589, -0.94208390, -0.35862958, 0.42488807, -1.31806862, -0.26027584, 14.08759975, -64.60728455, 43.11729813, 69.02072144, -1.42571688, -177.07662964, -0.02806476, 0.00420240, -0.56658846, -0.82351226, 0.00484030, 0.00867385, 0.00068078, 87.59300232, 1211.47338867, 39.12999725, 0.00000000
1, 1.2400, 124, -0.02857807, -0.94320261, -0.35816377, 0.29791212, -1.32077265, -0.15447427, 13.90477753, -64.69524384, 42.66053009, 69.02400970, -1.42900240, -177.08953857, -0.02798824, 0.00411585, -0.56661296, -0.82349843, 0.00366243, 0.00977062, 0.00027559, 87.59300232, 1211.47338867, 39.12999725, 0.00000000
1, 1.2500, 125, -0.02766597, -0.94391966, -0.36218959, 0.36939576, -1.32049644, -0.13710891, 13.90477753, -64.69524384, 42.66053009, 69.02802277, -1.43244863, -177.10235596, -0.02791295, 0.00402863, -0.56664264, -0.82348096, 0.00269233, 0.01046653, 0.00436070, 87.59300232, 1211.47338867, 39.12999725, 0.00000000
1, 1.2600, 126, -0.02876030, -0.94153547, -0.36166137, 0.34886166, -1.11566341, -0.08000478, 13.53913212, -63.63974380, 42.73666000, 69.02306366, -1.44376636, -177.13235474, -0.02775347, 0.00379774, -0.56660932, -0.82351023, 0.00369128, 0.00807142, 0.00386753, 87.59300232, 1211.47338867, 39.12999725, 0.00000000
1, 1.2700, 127, -0.02913958, -0.93985617, -0.36020741, 0.31456116, -1.28747261, -0.08351187, 13.75851536, -65.04708099, 43.74535370, 69.02651978, -1.44759500, -177.14468384, -0.02768370, 0.00371011, -0.56663507, -0.82349539, 0.00390147, 0.00641468, 0.00236656, 87.59300232, 1211.47338867, 39.12999725, 0.00000000
1, 1.2800, 128, -0.02788057, -0.93806177, -0.35873467, 0.38273105, -1.03105104, 0.00956200, 14.48980618, -64.38739014, 43.47890854, 69.03059387, -1.45137405, -177.15426636, -0.02763328, 0.00363646, -0.56666505, -0.82347673, 0.00257706, 0.00459895, 0.00095429, 87.59300232, 1211.47338867, 39.12999725, 0.00000000
1, 1.2900, 129, -0.02886313, -0.93699002, -0.35799927, 0.29359061, -0.92711860, -0.09345005, 14.38011456, -65.26697540, 43.34568787, 69.03374481, -1.45381916, -177.16326904, -0.02758062, 0.00357517, -0.56668824, -0.82346278, 0.00350752, 0.00350843, 0.00027151, 87.60500336, 1210.34936523, 39.22999954, 0.00000000
1, 1.3000, 130, -0.02867428, -0.93553269, -0.35743293, 0.43795943, -0.83822340, -0.21507102, 14.38011456, -65.26697540, 43.34568787, 69.03832245, -1.45480919, -177.17185974, -0.02752358, 0.00352662, -0.56672162, -0.82344204, 0.00328690, 0.00202408, -0.00022227, 87.60500336, 1210.34936523, 39.22999954, 0.00000000
1, 1.3100, 131, -0.02905416, -0.93646938, -0.35833606, 0.22397684, -0.89051020, -0.26825050, 13.75851536, -63.63974380, 43.25052261, 69.03370667, -1.46616733, -177.20063782, -0.02737302, 0.00330153, -0.56669056, -0.82346934, 0.00361668, 0.00295319, 0.00070433, 87.60500336, 1210.34936523, 39.22999954, 0.00000000
1, 1.3200, 132, -0.02786529, -0.93827915, -0.35648996, 0.17144856, -0.97612303, -0.30504629, 13.61225796, -63.55178452, 43.06019974, 69.03569031, -1.46681142, -177.21086121, -0.02730277, 0.00324688, -0.56670517, -0.82346183, 0.00227333, 0.00478540, -0.00118917, 87.60500336, 1210.34936523, 39.22999954, 0.00000000
1, 1.3300, 133, -0.02628372, -0.93806100, -0.35727111, 0.07991548, -0.77099323, -0.30045360, 14.30698395, -63.90362167, 43.25052261, 69.03670502, -1.46676445, -177.21914673, -0.02724303, 0.00320652, -0.56671274, -0.82345879, 0.00068368, 0.00456005, -0.00038872, 87.60500336, 1210.34936523, 39.22999954, 0.00000000
1, 1.3400, 134, -0.02594142, -0.93842906, -0.35680848, 0.18687992, -0.70153803, -0.29932073, 14.38011456, -68.38949585, 43.49793625, 69.03878021, -1.46647906, -177.22676086, -0.02718677, 0.00317135, -0.56672770, -0.82345033, 0.00034871, 0.00491658, -0.00082199, 87.60500336, 1210.34936523, 39.22999954, 0.00000000
1, 1.3500, 135, -0.02558738, -0.93903089, -0.36093187, 0.42020032, -0.80348539, -0.24944298, 14.70919418, -63.85964203, 43.59310150, 69.04319763, -1.46702349, -177.23516846, -0.02712899, 0.00312695, -0.56675977, -0.82343036, -0.00001344, 0.00549890, 0.00335284, 87.60500336, 1210.34936523, 39.22999954, 0.00000000
1, 1.3600, 136, -0.02575373, -0.93965626, -0.36204582, 0.43927449, -0.76731986, -0.35421085, 14.70919418, -63.85964203, 43.59310150, 69.03374481, -1.46308470, -177.26467896, -0.02689764, 0.00300704, -0.56669229, -0.82348502, 0.00017636, 0.00611614, 0.00448643, 87.60500336, 1210.34936523, 39.22999954, 0.00000000
1, 1.3700, 137, -0.02647910, -0.93884510, -0.36195567, 0.51277345, -1.04206121, -0.30747694, 14.27041817, -65.22299194, 43.38374710, 69.03916931, -1.46394157, -177.27551270, -0.02682387, 0.00294856, -0.56673151, -0.82346046, 0.00093890, 0.00533853, 0.00430603, 87.60500336, 1210.34936523, 39.22999954, 0.00000000
1, 1.3800, 138, -0.02668783, -0.93732208, -0.36207008, 0.67665786, -1.31523919, -0.31372169, 14.19729233, -64.73921967, 42.94601059, 69.04628754, -1.46571648, -177.28892517, -0.02673610, 0.00287115, -0.56678325, -0.82342803, 0.00111657, 0.00377619, 0.00452536, 87.60500336, 1210.34936523, 39.22999954, 0.00000000
1, 1.3900, 139, -0.02687171, -0.93703902, -0.36280853, 0.76551807, -1.28080344, -0.27811298, 14.19729233, -64.03556061, 42.98407745, 69.05426025, -1.46769834, -177.30187988, -0.02665256, 0.00279465, -0.56684107, -0.82339114, 0.00127929, 0.00344501, 0.00539067, 87.60500336, 1210.34936523, 39.22999954, 0.00000000
1, 1.4000, 140, -0.02581752, -0.93701947, -0.36307380, 0.69443321, -1.29794586, -0.31341249, 13.64882374, -63.72769928, 43.19342804, 69.06153870, -1.46940970, -177.31513977, -0.02656567, 0.00271851, -0.56689388, -0.82335794, 0.00018251, 0.00337709, 0.00578563, 87.60500336, 1210.34936523, 39.22999954, 0.00000000
1, 1.4100, 141, -0.02596228, -0.93791318, -0.36258945, 0.80515879, -1.34540784, -0.50811046, 13.64882374, -63.72769928, 43.19342804, 69.05956268, -1.46963382, -177.34918213, -0.02632212, 0.00254796, -0.56688046, -0.82337546, 0.00031826, 0.00423910, 0.00538497, 87.60500336, 1210.34936523, 39.22999954, 0.00000000
1, 1.4200, 142, -0.02583731, -0.93797183, -0.36261928, 0.57204831, -1.34723675, -0.50743556, 15.00170898, -64.38739014, 43.19342804, 69.06565094, -1.46970856, -177.36358643, -0.02621888, 0.00247757, -0.56692457, -0.82334864, 0.00018631, 0.00430265, 0.00540242, 87.60500336, 1210.34936523, 39.22999954, 0.00000000
1, 1.4300, 143, -0.02687257, -0.93748003, -0.36188862, 0.64448589, -1.39784586, -0.52629960, 14.23385715, -65.31095886, 43.36471558, 69.07248688, -1.46978629, -177.37852478, -0.02611176, 0.00240465, -0.56697398, -0.82331830, 0.00121977, 0.00376867, 0.00478224, 87.60500336, 1210.34936523, 39.22999954, 0.00000000
1, 1.4400, 144, -0.02584324, -0.93622059, -0.36152989, 0.66187871, -1.31165481, -0.54211903, 14.23385715, -63.63974380, 42.94601059, 69.07946777, -1.46940660, -177.39273071, -0.02600777, 0.00233874, -0.56702435, -0.82328701, 0.00019723, 0.00246771, 0.00453141, 87.60500336, 1210.34936523, 39.22999954, 0.00000000
1, 1.4500, 145, -0.02458811, -0.93607038, -0.36019206, 0.75316924, -1.51707113, -0.52913862, 14.27041817, -63.94759750, 42.92698288, 69.08740234, -1.46987987, -177.40878296, -0.02589453, 0.00225764, -0.56708175, -0.82325125, -0.00106239, 0.00227062, 0.00331678, 87.60500336, 1210.34936523, 39.22999954, 0.00000000
1, 1.4600, 146, -0.02406183, -0.93411142, -0.36020303, 0.73411131, -1.50120533, -0.45843360, 14.27041817, -63.94759750, 42.92698288, 69.08815002, -1.46864474, -177.44496155, -0.02562852, 0.00208767, -0.56708771, -0.82325590, -0.00158699, 0.00027272, 0.00342931, 87.60500336, 1210.34936523, 39.22999954, 0.00000000
1, 1.4700, 147, -0.02354487, -0.93330473, -0.36062238, 0.82401168, -1.50021529, -0.47626618, 14.16072655, -63.77168274, 42.75569153, 69.09679413, -1.46954882, -177.46067810, -0.02551991, 0.00200530, -0.56715018, -0.82321650, -0.00209195, -0.00055085, 0.00389206, 87.60500336, 1210.34936523, 39.22999954, 0.00000000
1, 1.4800, 148, -0.02407308, -0.93297130, -0.36099499, 1.16363883, -1.56815934, -0.35568562, 14.56293774, -64.69524384, 43.00310516, 69.10883331, -1.47181892, -177.47660828, -0.02541653, 0.00191284, -0.56723720, -0.82315999, -0.00159749, -0.00095205, 0.00444468, 87.60500336, 1210.34936523, 39.22999954, 0.00000000
1, 1.4900, 149, -0.02242131, -0.93500125, -0.36222222, 1.39643681, -1.53202486, -0.35563833, 14.23385715, -64.16749573, 42.94601059, 69.12319946, -1.47395730, -177.49220276, -0.02531491, 0.00182349, -0.56734079, -0.82309192, -0.00328507, 0.00099657, 0.00588752, 87.60500336, 1210.34936523, 39.22999954, 0.00000000
1, 1.5000, 150, -0.02588336, -0.93504566, -0.36262959, 1.50555146, -1.56405342, -0.44453710, 14.56293774, -65.88268280, 43.15536499, 69.13866425, -1.47537529, -177.50839233, -0.02520531, 0.00173648, -0.56745231, -0.82301867, 0.00014606, 0.00094707, 0.00654320, 87.60500336, 1210.34936523, 39.22999954, 0.00000000
1, 1.5100, 151, -0.02733395, -0.93418127, -0.36470073, 1.68389702, -1.56379271, -0.37476411, 14.56293774, -65.88268280, 43.15536499, 69.14028168, -1.47946155, -177.54351807, -0.02497320, 0.00153352, -0.56746477, -0.82301748, 0.00155718, 0.00000598, 0.00881857, 87.60500336, 1210.34936523, 39.22999954, 0.00000000
1, 1.5200, 152, -0.02731082, -0.93382376, -0.36808243, 1.82762980, -1.70103574, -0.30777606, 14.38011456, -66.05860138, 43.19342804, 69.15898895, -1.48263967, -177.56053162, -0.02486661, 0.00143057, -0.56759959, -0.82292789, 0.00145683, -0.00039005, 0.01230719, 87.60500336, 1210.34936523, 39.22999954, 0.00000000
1, 1.5300, 153, -0.02586665, -0.93385291, -0.36680534, 1.81223071, -1.87155783, -0.38162717, 14.56293774, -65.39891052, 43.02214050, 69.17759705, -1.48572850, -177.57937622, -0.02474628, 0.00131900, -0.56773376, -0.82283926, -0.00004221, -0.00047776, 0.01134073, 87.60500336, 1210.34936523, 39.22999954, 0.00000000
1, 1.5400, 154, -0.02506429, -0.93384504, -0.36655039, 1.88333178, -1.80238402, -0.38039041, 14.23385715, -64.25545502, 43.02214050, 69.19689941, -1.48857701, -177.59759521, -0.02462944, 0.00121249, -0.56787282, -0.82274693, -0.00089697, -0.00059855, 0.01138687, 87.60500336, 1210.34936523, 39.22999954, 0.00000000
1, 1.5500, 155, -0.02324274, -0.93413973, -0.36548647, 2.29511189, -1.53985095, -0.49917912, 14.05103493, -64.16749573, 43.09827042, 69.22027588, -1.48937607, -177.61376953, -0.02451705, 0.00113160, -0.56804091, -0.82263440, -0.00274750, -0.00044177, 0.01068798, 87.60500336, 1210.34936523, 39.22999954, 0.00000000
1, 1.5600, 156, -0.02236469, -0.93460715, -0.36597255, 2.40264726, -1.45238304, -0.55040413, 14.05103493, -64.16749573, 43.09827042, 69.23199463, -1.48599935, -177.64848328, -0.02425091, 0.00098618, -0.56812507, -0.82258433, -0.00361557, -0.00010282, 0.01151182, 87.60500336, 1210.34936523, 39.22999954, 0.00000000
1, 1.5700, 157, -0.02385656, -0.93740833, -0.36367053, 2.29514432, -1.43578804, -0.56730467, 13.61225796, -62.89209366, 43.15536499, 69.25534821, -1.48578286, -177.66392517, -0.02413880, 0.00091610, -0.56829274, -0.82247174, -0.00207213, 0.00260963, 0.00944018, 87.60500336, 1210.34936523, 39.22999954, 0.00000000
1, 1.5800, 158, -0.02448494, -0.93863297, -0.36393228, 2.43913579, -1.52071285, -0.55195230, 14.12416077, -64.69524384, 43.04117203, 69.28015900, -1.48600376, -177.68011475, -0.02402357, 0.00083946, -0.56847095, -0.82235205, -0.00144391, 0.00368188, 0.01010434, 87.60500336, 1210.34936523, 39.22999954, 0.00000000
1, 1.5900, 159, -0.02361389, -0.94147241, -0.36283547, 2.29434681, -1.40205550, -0.53143644, 13.53913212, -65.97064209, 43.28859329, 69.30349731, -1.48599041, -177.69511414, -0.02391571, 0.00077002, -0.56863850, -0.82223946, -0.00231602, 0.00637533, 0.00939365, 87.60500336, 1210.34936523, 39.22999954, 0.00000000
1, 1.6000, 160, -0.02419484, -0.94237816, -0.36198679, 2.18688083, -1.52411532, -0.46336052, 13.90477753, -65.66278839, 43.06019974, 69.32576752, -1.48703885, -177.71101379, -0.02380668, 0.00068821, -0.56879848, -0.82213199, -0.00175380, 0.00713944, 0.00892114, 87.60500336, 1210.34936523, 39.22999954, 0.00000000
1, 1.6100, 161, -0.02519568, -0.94351619, -0.36228281, 1.93240654, -1.39144158, -0.30158785, 13.90477753, -65.66278839, 43.15536499, 69.33306122, -1.48724723, -177.74372864, -0.02357299, 0.00052585, -0.56885099, -0.82210249, -0.00076750, 0.00817032, 0.00950238, 87.60500336, 1210.34936523, 39.22999954, 0.00000000
1, 1.6200, 162, -0.02485496, -0.94489634, -0.36339664, 1.73450172, -1.42844081, -0.23144688, 14.05103493, -65.13504028, 43.15536499, 69.35076904, -1.49012053, -177.75790405, -0.02348539, 0.00043843, -0.56897837, -0.82201701, -0.00112548, 0.00949813, 0.01075654, 87.60500336, 1210.34936523, 39.22999954, 0.00000000
1, 1.6300, 163, -0.02560345, -0.94476151, -0.36297306, 1.30282879, -1.50272083, -0.09106119, 14.30698395, -63.15597153, 42.56536865, 69.36417389, -1.49456549, -177.77230835, -0.02340419, 0.00033782, -0.56907493, -0.82195258, -0.00044304, 0.00926904, 0.01058771, 87.60500336, 1210.34936523, 39.22999954, 0.00000000
1, 1.6400, 164, -0.02618161, -0.94317758, -0.36342958, 1.05264938, -1.33029735, -0.26245379, 13.61225796, -63.63974380, 42.64150238, 69.37505341, -1.49679601, -177.78567505, -0.02331926, 0.00025758, -0.56915313, -0.82190084, 0.00007493, 0.00761528, 0.01123419, 87.60500336, 1210.34936523, 39.22999954, 0.00000000
1, 1.6500, 165, -0.02640773, -0.94027501, -0.36405736, 1.12446189, -1.31229520, -0.27987334, 13.83164692, -65.92666626, 43.15536499, 69.38663483, -1.49879754, -177.79895020, -0.02323398, 0.00017965, -0.56923640, -0.82184559, 0.00026172, 0.00464289, 0.01205016, 87.60500336, 1210.34936523, 39.22999954, 0.00000000
1, 1.6600, 166, -0.02573855, -0.93940794, -0.36429000, 0.83980441, -1.10384154, -0.57345104, 14.05103493, -64.03556061, 43.15536499, 69.37432861, -1.50127339, -177.82916260, -0.02302962, 0.00000935, -0.56914830, -0.82191235, -0.00041740, 0.00374800, 0.01235779, 87.60500336, 1210.34936523, 39.22999954, 0.00000000
1, 1.6700, 167, -0.02875191, -0.93840754, -0.36480802, 0.53519398, -1.15797818, -0.55607885, 14.05103493, -64.03556061, 43.15536499, 69.38001251, -1.50014722, -177.84196472, -0.02293221, -0.00004501, -0.56918895, -0.82188690, 0.00256396, 0.00280204, 0.01273318, 87.60500336, 1210.34936523, 39.22999954, 0.00000000
1, 1.6800, 168, -0.02536413, -0.93738306, -0.36476368, 0.58604103, -1.02233982, -0.43033469, 13.57569790, -63.81566238, 42.60343552, 69.38615417, -1.49971855, -177.85305786, -0.02285056, -0.00009579, -0.56923300, -0.82185870, -0.00081096, 0.00174317, 0.01277923, 87.60500336, 1210.34936523, 39.22999954, 0.00000000
1, 1.6900, 169, -0.02388846, -0.93703395, -0.36425278, 0.40608385, -1.00716710, -0.39430842, 14.34354877, -63.85964203, 42.85084915, 69.39049530, -1.49957335, -177.86387634, -0.02277225, -0.00014762, -0.56926417, -0.82183933, -0.00228068, 0.00136374, 0.01234874, 87.60500336, 1210.34936523, 39.22999954, 0.00000000
1, 1.7000, 170, -0.02273152, -0.93570262, -0.36447674, 0.42117041, -0.80233920, -0.31973508, 14.01446915, -63.77168274, 42.85084915, 69.39492798, -1.49940455, -177.87249756, -0.02270946, -0.00018845, -0.56929588, -0.82181901, -0.00343699, 0.00000440, 0.01264719, 87.60500336, 1210.34936523, 39.22999954, 0.00000000
1, 1.7100, 171, -0.02201750, -0.93581331, -0.36453128, 0.70569938, -0.64685941, -0.24702370, 14.38011456, -64.16749573, 43.11729813, 69.36805725, -1.49137628, -177.89874268, -0.02248141, -0.00026645, -0.56910253, -0.82195920, -0.00411043, 0.00012933, 0.01266081, 87.60500336, 1210.34936523, 39.22999954, 0.00000000
1, 1.7200, 172, -0.02214464, -0.93500543, -0.36563453, 0.61063111, -0.37655711, -0.03011034, 14.38011456, -64.16749573, 43.11729813, 69.37425995, -1.49242091, -177.90237427, -0.02246056, -0.00029077, -0.56914711, -0.82192892, -0.00389206, -0.00056170, 0.01344678, 87.60500336, 1210.34936523, 39.22999954, 0.00000000
1, 1.7300, 173, -0.02320783, -0.93516749, -0.36404735, 0.75446635, -0.44432926, -0.01439699, 14.01446915, -64.65126801, 43.07923508, 69.38192749, -1.49385130, -177.90658569, -0.02243747, -0.00032045, -0.56920218, -0.82189137, -0.00285087, -0.00044762, 0.01198855, 87.60500336, 1210.34936523, 39.22999954, 0.00000000
1, 1.7400, 174, -0.02452659, -0.93777478, -0.36426505, 0.75437999, -0.46176860, 0.00281498, 14.12416077, -63.77168274, 42.88891602, 69.38957977, -1.49550283, -177.91090393, -0.02241475, -0.00035223, -0.56925714, -0.82185382, -0.00156509, 0.00211675, 0.01232284, 87.60500336, 1210.34936523, 39.22999954, 0.00000000
1, 1.7500, 175, -0.02339819, -0.93726033, -0.36689514, 0.69928664, -0.48106271, 0.10804776, 13.57569790, -63.63974380, 42.67956161, 69.39667511, -1.49820697, -177.91502380, -0.02239862, -0.00039073, -0.56930822, -0.82181889, -0.00273224, 0.00155850, 0.01507236, 87.60500336, 1210.34936523, 39.22999954, 0.00000000
1, 1.7600, 176, -0.02345138, -0.93623561, -0.36618069, 0.91472399, -0.42705655, 0.05578901, 14.30698395, -64.87116241, 43.25052261, 69.37424469, -1.49377167, -177.93783569, -0.02221288, -0.00047661, -0.56914693, -0.82193565, -0.00268645, 0.00053006, 0.01436841, 87.60500336, 1210.34936523, 39.22999954, 0.00000000
1, 1.7700, 177, -0.02331932, -0.93567973, -0.36454454, 0.89512742, -0.32514021, 0.11072657, 14.30698395, -64.87116241, 43.25052261, 69.38325500, -1.49595284, -177.94049072, -0.02220471, -0.00050370, -0.56921172, -0.82189095, -0.00277166, 0.00006261, 0.01249359, 87.60500336, 1210.34936523, 39.22999954, 0.00000000
1, 1.7800, 178, -0.02330267, -0.93485880, -0.36438462, 0.82573986, -0.34027681, -0.04758409, 14.67262936, -63.24393463, 42.85084915, 69.39159393, -1.49670470, -177.94384766, -0.02218442, -0.00052414, -0.56927156, -0.82185012, -0.00281366, -0.00080825, 0.01246821, 87.60500336, 1210.34936523, 39.22999954, 0.00000000
1, 1.7900, 179, -0.02224920, -0.93508685, -0.36046717, 1.05950773, -0.30299613, -0.11782883, 14.30698395, -63.19995117, 42.58440399, 69.40227509, -1.49666762, -177.94709778, -0.02216096, -0.00053796, -0.56934810, -0.82179767, -0.00386872, -0.00064211, 0.00871560, 87.60500336, 1210.34936523, 39.22999954, 0.00000000
1, 1.8000, 180, -0.02197958, -0.93531919, -0.35898900, 1.13197792, -0.24954233, -0.20481837, 14.30698395, -63.28790665, 42.77472687, 69.41367340, -1.49562752, -177.95016479, -0.02213392, -0.00054350, -0.56942981, -0.82174176, -0.00412678, -0.00047812, 0.00741847, 87.60500336, 1210.34936523, 39.22999954, 0.00000000
1, 1.8100, 181, -0.02239472, -0.93626446, -0.35936955, 1.40289652, -0.48785737, -0.19307931, 14.67262936, -65.00309753, 42.66053009, 69.41056824, -1.48722112, -177.97572327, -0.02190884, -0.00061082, -0.56940693, -0.82176369, -0.00367010, 0.00041077, 0.00794600, 87.60500336, 1210.34936523, 39.22999954, 0.00000000
1, 1.8200, 182, -0.01976467, -0.93619448, -0.35943261, 1.29938102, -0.63992441, -0.38932097, 14.67262936, -65.00309753, 42.66053009, 69.42376709, -1.48582613, -177.98307800, -0.02184919, -0.00063488, -0.56950134, -0.82169968, -0.00616997, 0.00033446, 0.00801619, 87.60500336, 1210.34936523, 39.22999954, 0.00000000
1, 1.8300, 183, -0.01857116, -0.93916172, -0.35962546, 1.31826639, -0.69066894, -0.42560223, 14.45324135, -63.50780487, 43.06019974, 69.43716431, -1.48426759, -177.99104309, -0.02178441, -0.00066074, -0.56959730, -0.82163495, -0.00734352, 0.00321946, 0.00842677, 87.60500336, 1210.34936523, 39.22999954, 0.00000000
1, 1.8400, 184, -0.01532731, -0.93893516, -0.35937300, 1.32215154, -0.92880189, -0.55366868, 14.30698395, -64.60728455, 43.19342804, 69.45065308, -1.48234415, -178.00169373, -0.02169861, -0.00069730, -0.56969386, -0.82157028, -0.01055367, 0.00291072, 0.00839089, 87.60500336, 1210.34936523, 39.22999954, 0.00000000
1, 1.8500, 185, -0.01693941, -0.94022501, -0.36029217, 1.37840903, -1.06416917, -0.64457828, 14.67262936, -64.78320312, 42.92698288, 69.46475220, -1.48004246, -178.01393127, -0.02159957, -0.00073894, -0.56979471, -0.82150280, -0.00890910, 0.00411387, 0.00953901, 87.60500336, 1210.34936523, 39.22999954, 0.00000000
1, 1.8600, 186, -0.01624978, -0.93975395, -0.35855821, 1.38011169, -1.30488110, -0.61448759, 14.52637196, -63.81566238, 42.66053009, 69.46604156, -1.47015584, -178.04821777, -0.02130457, -0.00083835, -0.56980318, -0.82150471, -0.00952823, 0.00357422, 0.00798288, 87.60500336, 1210.34936523, 39.22999954, 0.00000000
1, 1.8700, 187, -0.01703366, -0.94073129, -0.35918915, 1.36579013, -1.64750421, -0.65680361, 14.52637196, -63.81566238, 42.66053009, 69.48015594, -1.46978128, -178.06596375, -0.02117565, -0.00092126, -0.56990421, -0.82143784, -0.00861570, 0.00452097, 0.00868618, 87.60500336, 1210.34936523, 39.22999954, 0.00000000
1, 1.8800, 188, -0.01643724, -0.93950897, -0.35880464, 1.46077204, -1.93524599, -0.85650504, 14.08759975, -63.15597153, 42.50827408, 69.49530792, -1.46854055, -178.08709717, -0.02101812, -0.00101469, -0.57001251, -0.82136649, -0.00920020, 0.00320661, 0.00854664, 87.60500336, 1210.34936523, 39.22999954, 0.00000000
1, 1.8900, 189, -0.01724651, -0.93959260, -0.35810640, 1.48200130, -2.24328208, -0.89820272, 14.78232574, -64.65126801, 42.92698288, 69.51075745, -1.46798217, -178.11126709, -0.02084228, -0.00112809, -0.57012302, -0.82129425, -0.00837634, 0.00319843, 0.00809301, 87.60500336, 1210.34936523, 39.22999954, 0.00000000
1, 1.9000, 190, -0.01747202, -0.93904763, -0.35807422, 1.48417270, -2.53545237, -0.86919522, 15.00170898, -64.73921967, 43.00310516, 69.52628326, -1.46871102, -178.13806152, -0.02065398, -0.00126386, -0.57023406, -0.82122171, -0.00815394, 0.00255790, 0.00831666, 87.60500336, 1210.34936523, 39.22999954, 0.00000000
1, 1.9100, 191, -0.01677263, -0.93937904, -0.35963815, 1.54259646, -2.72027159, -1.08419955, 14.59950256, -65.00309753, 43.09827042, 69.53085327, -1.46337461, -178.18663025, -0.02027938, -0.00146652, -0.57026589, -0.82120854, -0.00883082, 0.00281206, 0.01008596, 87.60500336, 1210.34936523, 39.22999954, 0.00000000
1, 1.9200, 192, -0.01955699, -0.94118172, -0.36005068, 1.58114815, -2.90752482, -1.15856743, 14.16072655, -65.17901611, 43.25052261, 69.54745483, -1.46268332, -178.21794128, -0.02005186, -0.00161443, -0.57038444, -0.82113153, -0.00597263, 0.00456336, 0.01063063, 87.60500336, 1210.34936523, 39.22999954, 0.00000000
1, 1.9300, 193, -0.02110178, -0.93921787, -0.36036116, 1.56385791, -2.92424536, -1.19402266, 14.16072655, -65.17901611, 43.25052261, 69.56389618, -1.46170914, -178.24951172, -0.01982096, -0.00176181, -0.57050174, -0.82105535, -0.00441672, 0.00249931, 0.01120914, 87.60500336, 1210.34936523, 39.22999954, 0.00000000
1, 1.9400, 194, -0.02141708, -0.93964636, -0.36252147, 1.29830074, -3.11303020, -1.32022703, 13.97790337, -64.25545502, 42.69859695, 69.57773590, -1.46020269, -178.28330994, -0.01957157, -0.00191688, -0.57060033, -0.82099253, -0.00407744, 0.00283712, 0.01361118, 87.60500336, 1210.34936523, 39.22999954, 0.00000000
1, 1.9500, 195, -0.02184038, -0.93909568, -0.36107603, 1.18771493, -3.13475227, -1.09182739, 13.97790337, -64.60728455, 43.26955795, 69.59046173, -1.46090519, -178.31651306, -0.01933745, -0.00208508, -0.57069087, -0.82093459, -0.00364758, 0.00220457, 0.01238508, 87.60500336, 1210.34936523, 39.22999954, 0.00000000
1, 1.9600, 196, -0.02260455, -0.93984264, -0.36081281, 0.98587120, -2.84699512, -0.94453347, 14.41668034, -64.91514587, 43.30761719, 69.58663177, -1.46100342, -178.36486816, -0.01899143, -0.00232724, -0.57066250, -0.82096171, -0.00289844, 0.00290313, 0.01225284, 87.60500336, 1210.34936523, 39.22999954, 0.00000000
1, 1.9700, 197, -0.02216964, -0.94046068, -0.35985869, 0.96452332, -2.66046071, -0.81749839, 14.30698395, -65.31095886, 42.96504593, 69.59698486, -1.46261859, -178.39266968, -0.01880057, -0.00247553, -0.57073617, -0.82091451, -0.00334266, 0.00352696, 0.01128425, 87.60500336, 1210.34936523, 39.22999954, 0.00000000
1, 1.9800, 198, -0.02440886, -0.94360054, -0.36002874, 1.01379180, -2.40532637, -0.65408045, 14.30698395, -65.31095886, 42.96504593, 69.60775757, -1.46487129, -178.41749573, -0.01863413, -0.00261361, -0.57081288, -0.82086450, -0.00113779, 0.00660230, 0.01162983, 87.60500336, 1210.34936523, 39.22999954, 0.00000000
1, 1.9900, 199, -0.02598177, -0.94377089, -0.36035481, 0.82998705, -2.29067588, -0.40501145, 13.97790337, -64.03556061, 43.47890854, 69.61663818, -1.46905434, -178.44039917, -0.01849119, -0.00275617, -0.57087612, -0.82082331, 0.00037439, 0.00671563, 0.01211414, 87.60500336, 1210.34936523, 39.22999954, 0.00000000
1, 2.0000, 200, -0.02586774, -0.94294006, -0.36074758, 0.75541556, -2.08655143, -0.33017856, 14.67262936, -64.21147156, 43.09827042, 69.62473297, -1.47322500, -178.46110535, -0.01836376, -0.00288796, -0.57093370, -0.82078570, 0.00018680, 0.00583673, 0.01264160, 87.60500336, 1210.34936523, 39.22999954, 0.00000000
1, 2.0100, 201, -0.02562374, -0.94414067, -0.36173812, 0.69739068, -1.91859782, -0.13310854, 14.63606358, -65.44289398, 43.63116455, 69.61255646, -1.47760475, -178.49786377, -0.01812191, -0.00310444, -0.57084566, -0.82085150, -0.00014533, 0.00702201, 0.01367978, 87.60500336, 1210.34936523, 39.22999954, 0.00000000
1, 2.0200, 202, -0.02544299, -0.94109786, -0.36316046, 0.58901995, -1.83367801, -0.13099158, 14.23385715, -65.66278839, 43.49793625, 69.61890411, -1.48276377, -178.51551819, -0.01802134, -0.00322833, -0.57089078, -0.82082188, -0.00039986, 0.00402829, 0.01497552, 87.60500336, 1210.34936523, 39.22999954, 0.00000000
1, 2.0300, 203, -0.02374725, -0.93863124, -0.36333960, 0.33832297, -1.76589036, -0.19911262, 14.23385715, -65.66278839, 43.49793625, 69.62274170, -1.48704624, -178.53277588, -0.01791920, -0.00334437, -0.57091796, -0.82080477, -0.00217501, 0.00153306, 0.01523779, 87.60500336, 1210.34936523, 39.22999954, 0.00000000
1, 2.0400, 204, -0.02324879, -0.93688655, -0.36332166, 0.30152228, -1.66325510, -0.19684224, 14.34354877, -64.25545502, 43.17439651, 69.62619019, -1.49099159, -178.54905701, -0.01782231, -0.00345323, -0.57094222, -0.82078958, -0.00274722, -0.00023070, 0.01527650, 87.60500336, 1210.34936523, 39.22999954, 0.00000000
1, 2.0500, 205, -0.02084643, -0.93737423, -0.36105284, 0.26652658, -1.73186076, -0.21575582, 14.45324135, -64.73921967, 43.06019974, 69.62929535, -1.49499738, -178.56605530, -0.01772064, -0.00356612, -0.57096404, -0.82077605, -0.00522258, 0.00023998, 0.01305894, 87.60500336, 1210.34936523, 39.22999954, 0.00000000
1, 2.0600, 206, -0.01892036, -0.93386936, -0.36112973, 0.28374693, -1.68054855, -0.19715138, 14.30698395, -64.60728455, 42.96504593, 69.60334778, -1.48540521, -178.60115051, -0.01742061, -0.00367624, -0.57077688, -0.82091218, -0.00715558, -0.00324051, 0.01307074, 87.60500336, 1210.34936523, 39.22999954, 0.00000000
1, 2.0700, 207, -0.01789548, -0.93434942, -0.36066046, 0.51624876, -1.55807698, -0.23044467, 14.30698395, -64.07953644, 42.75569153, 69.60890961, -1.48867428, -178.61657715, -0.01732665, -0.00377559, -0.57081634, -0.82088631, -0.00806259, -0.00265670, 0.01231340, 87.60500336, 1210.34936523, 39.22999954, 0.00000000
1, 2.0800, 208, -0.01644490, -0.93616027, -0.36047301, 0.58787245, -1.62698495, -0.17937754, 14.30698395, -64.07953644, 42.75569153, 69.61521912, -1.49266112, -178.63244629, -0.01723295, -0.00388232, -0.57086104, -0.82085675, -0.00957410, -0.00087941, 0.01222076, 87.60500336, 1210.34936523, 39.22999954, 0.00000000
1, 2.0900, 209, -0.01567336, -0.93788385, -0.36066154, 0.71645993, -1.63971424, -0.39097834, 14.08759975, -63.81566238, 43.30761719, 69.62281799, -1.49470651, -178.64918518, -0.01712350, -0.00397922, -0.57091498, -0.82082105, -0.01039529, 0.00079980, 0.01253214, 87.60500336, 1210.34936523, 39.22999954, 0.00000000
1, 2.1000, 210, -0.01705168, -0.93888205, -0.36049914, 0.66346765, -1.91658688, -0.27358893, 14.59950256, -65.88268280, 43.13633347, 69.62995148, -1.49881423, -178.66810608, -0.01700864, -0.00410189, -0.57096547, -0.82078773, -0.00908058, 0.00175372, 0.01249393, 87.60500336, 1210.34936523, 39.22999954, 0.00000000
1, 2.1100, 211, -0.01668085, -0.94252801, -0.36095199, 0.57748497, -2.05164695, -0.45194834, 14.52637196, -64.29943085, 43.40278244, 69.61710358, -1.49105775, -178.70765686, -0.01668623, -0.00424527, -0.57087189, -0.82085872, -0.00945909, 0.00538832, 0.01297810, 87.60500336, 1210.34936523, 39.22999954, 0.00000000
1, 2.1200, 212, -0.01674260, -0.94299954, -0.36009452, 0.32698169, -2.13966703, -0.43545410, 13.31974411, -65.00309753, 43.30761719, 69.62094879, -1.49442732, -178.72924805, -0.01654855, -0.00437637, -0.57089859, -0.82084215, -0.00931336, 0.00591680, 0.01196056, 87.60500336, 1210.34936523, 39.22999954, 0.00000000
1, 2.1300, 213, -0.01547665, -0.94606656, -0.35770273, -0.01269429, -2.22781706, -0.45384631, 13.31974411, -65.00309753, 43.30761719, 69.62141418, -1.49793029, -178.75170898, -0.01640504, -0.00451336, -0.57090110, -0.82084256, -0.01064075, 0.00897405, 0.00960013, 87.60500336, 1210.34936523, 39.22999954, 0.00000000
1, 2.1400, 214, -0.01389194, -0.94603080, -0.35851592, -0.11872621, -2.15747118, -0.61024767, 13.83164692, -64.25545502, 42.94601059, 69.62081146, -1.49972236, -178.77407837, -0.01625379, -0.00463767, -0.57089591, -0.82084846, -0.01227068, 0.00894032, 0.01041112, 87.60500336, 1210.34936523, 39.22999954, 0.00000000
1, 2.1500, 215, -0.01669916, -0.94566977, -0.35297489, -0.36791438, -2.17458773, -0.73289317, 14.78232574, -65.31095886, 43.19342804, 69.61772919, -1.50042546, -178.79702759, -0.01609280, -0.00475745, -0.57087290, -0.82086688, -0.00947854, 0.00859314, 0.00483380, 87.60500336, 1210.34936523, 39.22999954, 0.00000000
1, 2.1600, 216, -0.01834671, -0.94438517, -0.35086069, -0.24032959, -2.29252601, -0.80607635, 13.79508114, -66.98216248, 43.45987701, 69.60949707, -1.49419880, -178.83827209, -0.01576598, -0.00491946, -0.57081217, -0.82091463, -0.00781155, 0.00733134, 0.00265683, 87.60500336, 1210.34936523, 39.22999954, 0.00000000
1, 2.1700, 217, -0.01979618, -0.94244182, -0.34778574, -0.32539099, -2.58253407, -0.95253950, 14.52637196, -64.51932526, 43.36471558, 69.60696411, -1.49426889, -178.86579895, -0.01556895, -0.00505746, -0.57079279, -0.82093090, -0.00627919, 0.00543056, -0.00053894, 87.60500336, 1210.34936523, 39.22999954, 0.00000000
1, 2.1800, 218, -0.01879091, -0.94176608, -0.34715456, -0.39592102, -2.63369584, -1.00613427, 14.52637196, -64.51932526, 43.36471558, 69.60374451, -1.49401605, -178.89399719, -0.01536550, -0.00519656, -0.57076842, -0.82095081, -0.00728383, 0.00477242, -0.00121718, 87.60500336, 1210.34936523, 39.22999954, 0.00000000
1, 2.1900, 219, -0.01597262, -0.94376487, -0.34732270, -0.35589245, -3.00991535, -1.06690133, 14.56293774, -64.29943085, 43.04117203, 69.60100555, -1.49450576, -178.92594910, -0.01513898, -0.00535953, -0.57074744, -0.82096875, -0.01010332, 0.00678915, -0.00109721, 87.60500336, 1210.34936523, 39.22999954, 0.00000000
1, 2.2000, 220, -0.01302892, -0.94496918, -0.34551463, -0.44266775, -3.35396099, -1.05629063, 14.38011456, -62.98005676, 42.75569153, 69.59750366, -1.49629688, -178.96107483, -0.01489604, -0.00554779, -0.57072061, -0.82099044, -0.01307053, 0.00801179, -0.00295310, 87.60500336, 1210.34936523, 39.22999954, 0.00000000
1, 2.2100, 221, -0.01167721, -0.94487339, -0.34451455, -0.63775998, -3.69971037, -0.99264938, 13.94133854, -63.55178452, 42.86988068, 69.59039307, -1.49112117, -179.01690674, -0.01446998, -0.00578962, -0.57066691, -0.82103378, -0.01443806, 0.00794759, -0.00403694, 87.60500336, 1210.34936523, 39.22999954, 0.00000000
1, 2.2200, 222, -0.01221772, -0.94500262, -0.34258300, -0.65459776, -3.81992030, -0.99512500, 14.48980618, -63.37586975, 43.32665253, 69.58486176, -1.49511755, -179.05618286, -0.01420811, -0.00601458, -0.57062531, -0.82106566, -0.01384764, 0.00811850, -0.00608425, 87.60500336, 1210.34936523, 39.22999954, 0.00000000
1, 2.2300, 223, -0.01504809, -0.94661438, -0.34157932, -0.77714986, -4.14680719, -1.00162256, 14.38011456, -63.11199188, 42.92698288, 69.57820129, -1.50019753, -179.09855652, -0.01392944, -0.00626279, -0.57057524, -0.82110327, -0.01109646, 0.00977013, -0.00718904, 87.60500336, 1210.34936523, 39.22999954, 0.00000000
1, 2.2400, 224, -0.01589983, -0.95087290, -0.33906537, -0.84704965, -4.50929832, -0.90355974, 14.38011456, -63.11199188, 42.92698288, 69.57093048, -1.50746679, -179.14398193, -0.01363970, -0.00654195, -0.57052052, -0.82114404, -0.01035931, 0.01407456, -0.00981770, 87.60500336, 1210.34936523, 39.22999954, 0.00000000
1, 2.2500, 225, -0.01926200, -0.95191181, -0.34209409, -0.81472176, -4.44384432, -0.69134277, 14.34354877, -64.51932526, 42.48923874, 69.56393433, -1.51650178, -179.18804932, -0.01336844, -0.00682694, -0.57046771, -0.82118291, -0.00714280, 0.01516137, -0.00690645, 87.60500336, 1210.34936523, 39.22999954, 0.00000000
1, 2.2600, 226, -0.02278416, -0.95384181, -0.34285405, -0.94024265, -4.44482946, -0.69097942, 14.12416077, -63.94759750, 42.71763229, 69.55564117, -1.52476656, -179.24951172, -0.01296859, -0.00719309, -0.57040435, -0.82123017, -0.00377595, 0.01714025, -0.00626598, 87.60500336, 1210.34936523, 39.22999954, 0.00000000
1, 2.2700, 227, -0.02762110, -0.95132649, -0.34645802, -1.39312816, -4.15904140, -0.54295886, 13.86821175, -63.15597153, 42.52730942, 69.54280090, -1.53421044, -179.29039001, -0.01272177, -0.00746570, -0.57030952, -0.82129747, 0.00090507, 0.01469617, -0.00284120, 87.60500336, 1210.34936523, 39.22999954, 0.00000000
1, 2.2800, 228, -0.02913237, -0.94838440, -0.34888411, -1.59373808, -4.06053782, -0.36449108, 14.01446915, -64.95912170, 42.69859695, 69.52793121, -1.54499221, -179.32972717, -0.01249251, -0.00774035, -0.57020003, -0.82137442, 0.00223848, 0.01184537, -0.00064615, 87.60500336, 1210.34936523, 39.22999954, 0.00000000
1, 2.2900, 229, -0.02872672, -0.94384277, -0.35041633, -1.62870121, -4.02508068, -0.45153025, 14.01446915, -64.95912170, 42.69859695, 69.51269531, -1.55484462, -179.36901855, -0.01225876, -0.00800817, -0.57008785, -0.82145321, 0.00165671, 0.00740041, 0.00064082, 87.60500336, 1210.34936523, 39.22999954, 0.00000000
1, 2.3000, 230, -0.02960919, -0.93976945, -0.35245824, -1.68770123, -3.61555576, -0.33727008, 14.19729233, -64.38739014, 42.48923874, 69.49676514, -1.56434429, -179.40409851, -0.01205352, -0.00825238, -0.56997091, -0.82153499, 0.00236977, 0.00342974, 0.00242109, 87.60500336, 1210.34936523, 39.22999954, 0.00000000
1, 2.3100, 231, -0.03155264, -0.93783623, -0.35314253, -1.47492015, -3.26995206, -0.38339016, 13.97790337, -64.51932526, 43.00310516, 69.47315979, -1.57633686, -179.45278931, -0.01176226, -0.00858301, -0.56979769, -0.82165605, 0.00414989, 0.00160462, 0.00282905, 87.60500336, 1210.34936523, 39.22999954, 0.00000000
1, 2.3200, 232, -0.03132499, -0.93699610, -0.35599548, -1.43946075, -3.01008677, -0.51866174, 14.63606358, -64.12351990, 42.60343552, 69.45958710, -1.58203793, -179.48281860, -0.01157432, -0.00877454, -0.56969798, -0.82172590, 0.00375255, 0.00089779, 0.00533931, 87.60500336, 1210.34936523, 39.22999954, 0.00000000
1, 2.3300, 233, -0.03186280, -0.93445247, -0.35933688, -1.40583909, -2.68304300, -0.56462377, 13.21005249, -63.41984940, 42.27989578, 69.44628143, -1.58616745, -179.50993347, -0.01139936, -0.00894028, -0.56960028, -0.82179427, 0.00421194, -0.00156285, 0.00846535, 87.60500336, 1210.34936523, 39.22999954, 0.00000000
1, 2.3400, 234, -0.02934668, -0.93414116, -0.35736877, -1.33512008, -2.54497194, -0.57951581, 13.21005249, -63.41984940, 42.27989578, 69.43364716, -1.58967900, -179.53581238, -0.01123025, -0.00909532, -0.56950748, -0.82185912, 0.00162693, -0.00179298, 0.00628626, 87.60500336, 1210.34936523, 39.22999954, 0.00000000
1, 2.3500, 235, -0.02908252, -0.93111473, -0.35765186, -1.24936891, -2.11544919, -0.57074803, 13.61225796, -63.50780487, 42.75569153, 69.42176056, -1.59176886, -179.55761719, -0.01108319, -0.00921990, -0.56942040, -0.82192010, 0.00131300, -0.00474453, 0.00637368, 87.60500336, 1210.34936523, 39.22999954, 0.00000000
1, 2.3600, 236, -0.02717520, -0.92825133, -0.36161038, -0.85992336, -1.71955943, -0.45814669, 14.19729233, -63.99157715, 42.47021484, 69.39180756, -1.59289432, -179.59269714, -0.01083466, -0.00940515, -0.56920260, -0.82207209, -0.00062034, -0.00751470, 0.01008596, 87.60500336, 1210.34936523, 39.22999954, 0.00000000
1, 2.3700, 237, -0.02602695, -0.92731309, -0.36008349, -0.48452428, -1.56194377, -0.47356001, 14.05103493, -63.81566238, 42.54634094, 69.38742065, -1.59395993, -179.60899353, -0.01072270, -0.00949414, -0.56916976, -0.82209527, -0.00178004, -0.00831619, 0.00819603, 87.60500336, 1210.34936523, 39.22999954, 0.00000000
1, 2.3800, 238, -0.02497167, -0.92751116, -0.36007336, 0.07014192, -1.55901527, -0.38730410, 14.38011456, -64.21147156, 42.77472687, 69.38856506, -1.59582293, -179.62496948, -0.01061753, -0.00958668, -0.56917655, -0.82209086, -0.00286402, -0.00811131, 0.00817014, 87.60500336, 1210.34936523, 39.22999954, 0.00000000
1, 2.3900, 239, -0.02614720, -0.93142956, -0.36014506, 0.22918198, -1.30045736, -0.38235489, 14.38011456, -64.21147156, 42.77472687, 69.39123535, -1.59682143, -179.63848877, -0.01052569, -0.00966078, -0.56919456, -0.82207876, -0.00171479, -0.00420578, 0.00827809, 87.60500336, 1210.34936523, 39.22999954, 0.00000000
1, 2.4000, 240, -0.02531547, -0.93365753, -0.35919812, 0.60531384, -1.38469970, -0.29738539, 13.83164692, -65.00309753, 42.88891602, 69.39768219, -1.59891045, -179.65251160, -0.01043609, -0.00974479, -0.56923956, -0.82204783, -0.00256802, -0.00200756, 0.00741218, 87.60500336, 1210.34936523, 39.22999954, 0.00000000
1, 2.4100, 241, -0.02430954, -0.93685085, -0.35874850, 0.82221156, -1.57169187, -0.30198032, 14.08759975, -64.43137360, 42.56536865, 69.39098358, -1.59467733, -179.68565369, -0.01017658, -0.00987974, -0.56918877, -0.82208455, -0.00359713, 0.00116180, 0.00702791, 87.60500336, 1210.34936523, 39.22999954, 0.00000000
1, 2.4200, 242, -0.02159353, -0.93896782, -0.36122626, 0.92987108, -1.60543990, -0.28544098, 13.86821175, -63.33188629, 42.03247452, 69.40072632, -1.59765482, -179.70169067, -0.01007716, -0.00997992, -0.56925720, -0.82203722, -0.00626490, 0.00328933, 0.00947408, 87.60500336, 1210.34936523, 39.22999954, 0.00000000
1, 2.4300, 243, -0.02147395, -0.94189763, -0.35893831, 1.00516999, -1.80870461, -0.41299286, 13.64882374, -63.19995117, 42.22279358, 69.41129303, -1.60015047, -179.72009277, -0.00995855, -0.01008826, -0.56933129, -0.82198608, -0.00643519, 0.00615831, 0.00735196, 87.60500336, 1210.34936523, 39.22999954, 0.00000000
1, 2.4400, 244, -0.02211862, -0.94133258, -0.36060283, 0.89851809, -1.91246545, -0.41484800, 13.64882374, -63.19995117, 42.22279358, 69.42082214, -1.60299039, -179.73947144, -0.00983456, -0.01020406, -0.56939775, -0.82194006, -0.00583729, 0.00553338, 0.00917953, 87.60500336, 1210.34936523, 39.22999954, 0.00000000
1, 2.4500, 245, -0.02163274, -0.94288540, -0.36027017, 0.77495867, -2.10184407, -0.43602967, 14.38011456, -64.78320312, 42.50827408, 69.42916107, -1.60629451, -179.76068115, -0.00969953, -0.01033249, -0.56945544, -0.82190001, -0.00638018, 0.00703314, 0.00899273, 87.60500336, 1210.34936523, 39.22999954, 0.00000000
1, 2.4600, 246, -0.02310145, -0.94277704, -0.35880855, 0.58125138, -2.41128182, -0.49467742, 13.42943573, -64.29943085, 42.56536865, 69.42514801, -1.60500169, -179.80152893, -0.00939979, -0.01052651, -0.56942296, -0.82192349, -0.00494447, 0.00689645, 0.00760935, 87.60500336, 1210.34936523, 39.22999954, 0.00000000
1, 2.4700, 247, -0.02309143, -0.94385666, -0.35798547, 0.35162729, -2.63437748, -0.60413492, 13.61225796, -63.81566238, 42.96504593, 69.42942047, -1.60860205, -179.82832336, -0.00922587, -0.01068516, -0.56945097, -0.82190412, -0.00495498, 0.00799359, 0.00673965, 87.60500336, 1210.34936523, 39.22999954, 0.00000000
1, 2.4800, 248, -0.02419732, -0.94508201, -0.35668328, 0.06207085, -2.58774900, -0.44406390, 15.03827477, -63.28790665, 42.77472687, 69.43076324, -1.61353624, -179.85412598, -0.00906547, -0.01084865, -0.56945789, -0.82189900, -0.00392547, 0.00920536, 0.00547960, 87.60500336, 1210.34936523, 39.22999954, 0.00000000
1, 2.4900, 249, -0.02432519, -0.94578689, -0.35853583, -0.13524631, -2.55470467, -0.46034372, 15.03827477, -63.28790665, 42.77472687, 69.43013000, -1.61820209, -179.87966919, -0.00890537, -0.01100911, -0.56945068, -0.82190365, -0.00388289, 0.00991438, 0.00732807, 87.60500336, 1210.34936523, 39.22999954, 0.00000000
1, 2.5000, 250, -0.02548024, -0.94478720, -0.35921818, -0.38614830, -2.62585831, -0.42591530, 13.79508114, -62.80414200, 42.29892349, 69.42700958, -1.62344074, -179.90576172, -0.00874395, -0.01117658, -0.56942534, -0.82192051, -0.00281959, 0.00892854, 0.00798077, 87.60500336, 1210.34936523, 39.22999954, 0.00000000
1, 2.5100, 251, -0.02585413, -0.94366765, -0.36099881, -0.40585253, -2.35069513, -0.47280493, 13.79508114, -64.78320312, 43.25052261, 69.41109467, -1.62453806, -179.94578552, -0.00846074, -0.01138452, -0.56930721, -0.82200247, -0.00250533, 0.00785102, 0.00965427, 87.60500336, 1210.34936523, 39.22999954, 0.00000000
1, 2.5200, 252, -0.02735349, -0.94010186, -0.36234343, -0.58335197, -2.22859406, -0.68063444, 14.23385715, -63.33188629, 43.00310516, 69.40592194, -1.62600398, -179.96905518, -0.00830061, -0.01151100, -0.56926769, -0.82202977, -0.00101258, 0.00436950, 0.01077513, 87.60500336, 1210.34936523, 39.22999954, 0.00000000
1, 2.5300, 253, -0.02872651, -0.93772703, -0.36541826, -0.62186641, -2.17999601, -0.52129012, 13.75851536, -63.02403641, 42.54634094, 69.40033722, -1.62879300, -179.99130249, -0.00815429, -0.01164194, -0.56922519, -0.82205886, 0.00031774, 0.00203077, 0.01375727, 87.60500336, 1210.34936523, 39.22999954, 0.00000000
1, 2.5400, 254, -0.03039780, -0.93479723, -0.36720005, -0.63889784, -2.14439821, -0.60838121, 13.75851536, -63.02403641, 42.29892349, 69.39458466, -1.63064384, 179.98660278, -0.00800347, -0.01176601, -0.56918150, -0.82208884, 0.00196015, -0.00086345, 0.01544687, 87.60500336, 1210.34936523, 39.22999954, 0.00000000
1, 2.5500, 255, -0.03106223, -0.93294638, -0.36528641, -0.80361229, -1.94155061, -0.49814272, 13.35630894, -63.11199188, 42.29892349, 69.38710785, -1.63281500, 179.96667480, -0.00787046, -0.01188111, -0.56912571, -0.82212710, 0.00258275, -0.00267088, 0.01342105, 87.60500336, 1210.34936523, 39.22999954, 0.00000000
1, 2.5600, 256, -0.03246382, -0.93106467, -0.36408827, -0.57353580, -1.82194448, -0.35570571, 13.86821175, -63.11199188, 42.64150238, 69.35665894, -1.64096177, 179.93179321, -0.00765756, -0.01211476, -0.56890291, -0.82227981, 0.00391937, -0.00447500, 0.01202198, 87.60500336, 1210.34936523, 39.22999954, 0.00000000
1, 2.5700, 257, -0.02982628, -0.93236160, -0.36249956, -0.61316037, -1.70530868, -0.15977095, 13.75851536, -63.68372726, 42.64150238, 69.35100555, -1.64547908, 179.91526794, -0.00756078, -0.01222961, -0.56886029, -0.82230860, 0.00114428, -0.00302784, 0.01004547, 87.60500336, 1210.34936523, 39.22999954, 0.00000000
1, 2.5800, 258, -0.02767152, -0.93578166, -0.36206979, -0.40096140, -1.67246687, 0.03363163, 14.19729233, -63.77168274, 42.98407745, 69.34745026, -1.65169203, 179.89973450, -0.00747973, -0.01235156, -0.56883252, -0.82232660, -0.00110722, 0.00042680, 0.00953172, 87.60500336, 1210.34936523, 39.22999954, 0.00000000
1, 2.5900, 259, -0.02663558, -0.93419588, -0.36309323, -0.06312311, -1.51713812, 0.14133333, 13.17348671, -63.02403641, 42.14667130, 69.34719849, -1.65836537, 179.88603210, -0.00741449, -0.01246749, -0.56882882, -0.82232809, -0.00225545, -0.00114690, 0.01053224, 87.60500336, 1210.34936523, 39.22999954, 0.00000000
1, 2.6000, 260, -0.02578741, -0.93400264, -0.36492869, -0.04794533, -1.53758895, 0.35179663, 13.17348671, -63.02403641, 42.14667130, 69.34711456, -1.66708004, 179.87287903, -0.00736336, -0.01259532, -0.56882596, -0.82232845, -0.00324948, -0.00133681, 0.01237101, 87.60500336, 1210.34936523, 39.22999954, 0.00000000
1, 2.6100, 261, -0.02517288, -0.93422145, -0.36400050, 0.14970084, -1.55290759, 0.33329147, 13.68538952, -62.10047150, 42.18473053, 69.31682587, -1.66869926, 179.84234619, -0.00714892, -0.01276039, -0.56860524, -0.82248062, -0.00398431, -0.00107105, 0.01132809, 87.60500336, 1210.34936523, 39.22999954, 0.00000000
1, 2.6200, 262, -0.02456992, -0.93462372, -0.36501214, 0.13128407, -1.55362129, 0.36848944, 13.79508114, -63.94759750, 42.10860443, 69.31853485, -1.67763352, 179.82910156, -0.00709842, -0.01289010, -0.56861520, -0.82247204, -0.00465184, -0.00052778, 0.01197150, 87.60500336, 1210.34936523, 39.22999954, 0.00000000
1, 2.6300, 263, -0.02499120, -0.93343663, -0.36134678, 0.33049279, -1.74046779, 0.34637332, 14.34354877, -63.68372726, 42.41311646, 69.32228088, -1.68702018, 179.81404114, -0.00703728, -0.01303201, -0.56863964, -0.82245344, -0.00438521, -0.00173475, 0.00837140, 87.60500336, 1210.34936523, 39.22999954, 0.00000000
1, 2.6400, 264, -0.02585588, -0.93492621, -0.36244380, 0.26070654, -1.73873818, 0.20599680, 14.59950256, -64.87116241, 42.58440399, 69.32534027, -1.69508648, 179.79849243, -0.00696608, -0.01316686, -0.56865907, -0.82243842, -0.00366893, -0.00025839, 0.00951595, 87.60500336, 1210.34936523, 39.22999954, 0.00000000
1, 2.6500, 265, -0.02665352, -0.93784887, -0.36148891, 0.33524036, -1.80420732, 0.04618760, 14.59950256, -64.87116241, 42.58440399, 69.32918549, -1.70188749, 179.78175354, -0.00688024, -0.01329844, -0.56868416, -0.82241970, -0.00300318, 0.00264414, 0.00862564, 87.60500336, 1210.34936523, 39.22999954, 0.00000000
1, 2.6600, 266, -0.02705154, -0.93863142, -0.36054501, 0.32185152, -2.00702953, -0.15139695, 13.13692093, -62.84811401, 42.41311646, 69.31843567, -1.70451629, 179.74606323, -0.00663579, -0.01349510, -0.56860268, -0.82247490, -0.00269463, 0.00342998, 0.00768048, 87.60500336, 1210.34936523, 39.22999954, 0.00000000
1, 2.6700, 267, -0.02736293, -0.93923604, -0.35919896, 0.27227062, -2.22785854, -0.31409270, 13.86821175, -63.11199188, 42.29892349, 69.32182312, -1.70944524, 179.72410583, -0.00650302, -0.01363926, -0.56862384, -0.82245886, -0.00243823, 0.00408094, 0.00621611, 87.60500336, 1210.34936523, 39.22999954, 0.00000000
1, 2.6800, 268, -0.02594544, -0.94026679, -0.36020622, 0.13172817, -2.22554541, -0.52455360, 13.79508114, -64.12351990, 42.60343552, 69.32380676, -1.71239567, 179.70141602, -0.00635509, -0.01377289, -0.56863511, -0.82244998, -0.00391967, 0.00509685, 0.00726801, 87.60500336, 1210.34936523, 39.22999954, 0.00000000
1, 2.6900, 269, -0.02389109, -0.94335723, -0.35949826, -0.07954919, -2.41333508, -0.68606001, 14.38011456, -63.59576416, 42.20376587, 69.32375336, -1.71449757, 179.67639160, -0.00618599, -0.01391210, -0.56863153, -0.82245141, -0.00601904, 0.00818267, 0.00657624, 87.60500336, 1210.34936523, 39.22999954, 0.00000000
1, 2.7000, 270, -0.02240856, -0.94268137, -0.36040026, -0.05806622, -2.42633581, -0.93249530, 14.38011456, -63.59576416, 42.20376587, 69.32395935, -1.71434009, 179.65040588, -0.00599859, -0.01404001, -0.56862986, -0.82245189, -0.00750700, 0.00750522, 0.00748287, 87.60500336, 1210.34936523, 39.22999954, 0.00000000
1, 2.7100, 271, -0.02180492, -0.94380432, -0.36015558, -0.63196784, -2.20555902, -1.06672442, 13.64882374, -63.59576416, 41.82312393, 69.30857849, -1.70564413, 179.60935974, -0.00565894, -0.01418203, -0.56851524, -0.82253104, -0.00805940, 0.00866574, 0.00713444, 87.60500336, 1210.34936523, 39.22999954, 0.00000000
1, 2.7200, 272, -0.02144882, -0.94373339, -0.35848969, -1.04413509, -2.15647697, -1.11716604, 13.86821175, -63.37586975, 41.91828537, 69.29885864, -1.70281470, 179.58522034, -0.00547047, -0.01428191, -0.56844276, -0.82258070, -0.00828595, 0.00868778, 0.00521149, 87.60500336, 1210.34936523, 39.22999954, 0.00000000
1, 2.7300, 273, -0.02333937, -0.94408077, -0.35752824, -1.29136217, -2.36198735, -1.26135671, 13.06379032, -64.51932526, 42.48923874, 69.28674316, -1.69936717, 179.55865479, -0.00526114, -0.01438951, -0.56835282, -0.82264233, -0.00633785, 0.00910220, 0.00406794, 87.60500336, 1210.34936523, 39.22999954, 0.00000000
1, 2.7400, 274, -0.02391697, -0.94555002, -0.35966811, -1.54023242, -2.65612698, -1.23162246, 13.86821175, -64.73921967, 42.45117950, 69.27220154, -1.69724536, 179.52943420, -0.00503904, -0.01451981, -0.56824493, -0.82271594, -0.00571561, 0.01065320, 0.00598768, 87.60500336, 1210.34936523, 39.22999954, 0.00000000
1, 2.7500, 275, -0.02252880, -0.94676644, -0.36052316, -1.87804985, -3.00214195, -1.22028494, 13.86821175, -64.73921967, 42.45117950, 69.25439453, -1.69646287, 179.49702454, -0.00480018, -0.01467567, -0.56811297, -0.82280570, -0.00708273, 0.01197352, 0.00656641, 87.60500336, 1210.34936523, 39.22999954, 0.00000000
1, 2.7600, 276, -0.02322446, -0.94529808, -0.36150485, -1.69510746, -3.29118633, -1.29723489, 14.05103493, -63.77168274, 42.29892349, 69.22981262, -1.69284534, 179.44538879, -0.00440822, -0.01490667, -0.56793022, -0.82292992, -0.00635549, 0.01062265, 0.00723533, 87.60500336, 1210.34936523, 39.22999954, 0.00000000
1, 2.7700, 277, -0.02210130, -0.94466311, -0.36010343, -1.64130783, -3.53348207, -1.14428878, 14.01446915, -64.12351990, 42.56536865, 69.21449280, -1.69468117, 179.40827942, -0.00414878, -0.01510435, -0.56781512, -0.82300705, -0.00745905, 0.01011977, 0.00548403, 87.60500336, 1210.34936523, 39.22999954, 0.00000000
1, 2.7800, 278, -0.02222596, -0.94450480, -0.35665759, -1.56779277, -3.75619173, -1.13161755, 14.12416077, -64.51932526, 42.22279358, 69.19997406, -1.69743621, 179.36912537, -0.00387931, -0.01531861, -0.56770533, -0.82308012, -0.00738070, 0.01005627, 0.00179216, 87.60500336, 1210.34936523, 39.22999954, 0.00000000
1, 2.7900, 279, -0.02045659, -0.94317645, -0.35610569, -1.69251609, -3.79090953, -1.16712236, 13.61225796, -62.58424377, 42.22279358, 69.18421936, -1.69999254, 179.32951355, -0.00360540, -0.01553366, -0.56758654, -0.82315928, -0.00919178, 0.00882183, 0.00099668, 87.60500336, 1210.34936523, 39.22999954, 0.00000000
1, 2.8000, 280, -0.02251107, -0.94398785, -0.35684162, -1.96155953, -3.75842738, -1.18319464, 14.12416077, -62.84811401, 42.35601807, 69.16577911, -1.70229495, 179.29016113, -0.00333158, -0.01574565, -0.56744844, -0.82325166, -0.00718309, 0.00974250, 0.00144909, 87.60500336, 1210.34936523, 39.22999954, 0.00000000
1, 2.8100, 281, -0.02487494, -0.94295186, -0.36101374, -1.88596964, -3.80531096, -1.43050778, 14.12416077, -62.84811401, 42.35601807, 69.14078522, -1.70059800, 179.23344421, -0.00291215, -0.01601500, -0.56726122, -0.82337707, -0.00482832, 0.00883242, 0.00529113, 87.60500336, 1210.34936523, 39.22999954, 0.00000000
1, 2.8200, 282, -0.02727255, -0.93943250, -0.36218390, -2.22451949, -3.90946770, -1.51955330, 13.86821175, -62.98005676, 42.77472687, 69.11978149, -1.70032609, 179.19148254, -0.00260632, -0.01622125, -0.56710446, -0.82348204, -0.00240075, 0.00546511, 0.00605965, 87.60500336, 1210.34936523, 39.22999954, 0.00000000
1, 2.8300, 283, -0.02702488, -0.93861258, -0.36371374, -2.63603449, -3.58221650, -1.79266703, 14.08759975, -63.81566238, 42.47021484, 69.09460449, -1.69635272, 179.15161133, -0.00229648, -0.01639055, -0.56691837, -0.82360780, -0.00260182, 0.00479300, 0.00719809, 87.60500336, 1210.34936523, 39.22999954, 0.00000000
1, 2.8400, 284, -0.02710308, -0.93499857, -0.36485791, -2.99260688, -3.46123576, -2.01755047, 13.83164692, -63.24393463, 42.18473053, 69.06585693, -1.68986511, 179.11204529, -0.00197594, -0.01654010, -0.56670678, -0.82375109, -0.00243600, 0.00134401, 0.00790335, 87.60500336, 1210.34936523, 39.22999954, 0.00000000
1, 2.8500, 285, -0.02709176, -0.93419260, -0.36768270, -3.21087813, -3.01580524, -2.07783127, 13.53913212, -64.60728455, 42.20376587, 69.03479767, -1.68124294, 179.07643127, -0.00167279, -0.01665469, -0.56647944, -0.82390583, -0.00230489, 0.00072485, 0.01022808, 87.60500336, 1210.34936523, 39.22999954, 0.00000000
1, 2.8600, 286, -0.02747757, -0.93649489, -0.36899570, -3.62769580, -2.59079480, -2.03246379, 13.53913212, -64.60728455, 42.20376587, 68.98700714, -1.67159784, 179.03053284, -0.00128804, -0.01681282, -0.56613040, -0.82414323, -0.00175747, 0.00325131, 0.01094305, 87.60500336, 1210.34936523, 39.22999954, 0.00000000
1, 2.8700, 287, -0.02724676, -0.93895417, -0.37337989, -4.05987501, -2.47496176, -1.97597134, 13.86821175, -62.01251602, 41.82312393, 68.94729614, -1.66203713, 179.00033569, -0.00101769, -0.01689366, -0.56584162, -0.82434034, -0.00181765, 0.00600363, 0.01455053, 87.60500336, 1210.34936523, 39.22999954, 0.00000000
1, 2.8800, 288, -0.02218830, -0.94350678, -0.37384960, -4.70798159, -2.17098975, -1.98517573, 13.90477753, -62.14445114, 42.10860443, 68.90100861, -1.65131915, 178.97291565, -0.00076073, -0.01695221, -0.56550598, -0.82456958, -0.00670008, 0.01082438, 0.01430965, 87.60500336, 1210.34936523, 39.22999954, 0.00000000
1, 2.8900, 289, -0.01950306, -0.94819754, -0.37157702, -4.96463299, -1.50342846, -2.00551248, 14.12416077, -63.55178452, 42.35601807, 68.85197449, -1.63802922, 178.95166016, -0.00053488, -0.01696175, -0.56515175, -0.82481253, -0.00917285, 0.01581474, 0.01124394, 87.60500336, 1210.34936523, 39.22999954, 0.00000000
1, 2.9000, 290, -0.01863049, -0.94791716, -0.36916554, -4.96863079, -0.84933072, -2.13237524, 14.70919418, -63.33188629, 42.35601807, 68.80273438, -1.62121212, 178.93603516, -0.00033214, -0.01691795, -0.56479722, -0.82505620, -0.00977179, 0.01583421, 0.00803575, 87.60500336, 1210.34936523, 39.22999954, 0.00000000
1, 2.9100, 291, -0.01714286, -0.94719547, -0.36711341, -5.43798208, -0.26721528, -2.27690554, 14.70919418, -63.33188629, 42.35601807, 68.74260712, -1.59661591, 178.90934753, -0.00000992, -0.01687240, -0.56436366, -0.82535386, -0.01091394, 0.01544145, 0.00510880, 87.60500336, 1210.34936523, 39.22999954, 0.00000000
1, 2.9200, 292, -0.01278062, -0.94565248, -0.36616242, -5.72714949, 0.24798243, -2.44097233, 13.90477753, -64.21147156, 42.43214417, 68.68550873, -1.57297111, 178.90280151, 0.00016212, -0.01673432, -0.56395465, -0.82563621, -0.01482951, 0.01427144, 0.00316515, 87.60500336, 1210.34936523, 39.22999954, 0.00000000
1, 2.9300, 293, -0.00793125, -0.94380325, -0.36483467, -6.03377962, 0.71158111, -2.60607052, 13.39287472, -62.58424377, 42.18473053, 68.62525177, -1.54610717, 178.89994812, 0.00032369, -0.01655470, -0.56352359, -0.82593399, -0.01922879, 0.01278275, 0.00087992, 87.60500336, 1210.34936523, 39.22999954, 0.00000000
1, 2.9400, 294, -0.00178706, -0.93953210, -0.37104449, -6.27206802, 1.46648014, -2.71251893, 14.05103493, -61.57272339, 41.99440765, 68.56242371, -1.51550007, 178.90368652, 0.00045615, -0.01631543, -0.56307536, -0.82624435, -0.02486979, 0.00889489, 0.00607368, 87.60500336, 1210.34936523, 39.22999954, 0.00000000
1, 2.9500, 295, 0.00437764, -0.93649936, -0.37009391, -6.66772556, 2.39823127, -3.21906853, 13.97790337, -63.11199188, 42.29892349, 68.49547577, -1.47676384, 178.91423035, 0.00057992, -0.01598406, -0.56259924, -0.82657510, -0.03041133, 0.00626300, 0.00405791, 87.60500336, 1210.34936523, 39.22999954, 0.00000000
1, 2.9600, 296, 0.01087849, -0.93733978, -0.36873665, -6.79602051, 3.34752607, -3.62059736, 13.97790337, -63.11199188, 42.29892349, 68.42024231, -1.42111754, 178.91781616, 0.00083753, -0.01556456, -0.56206411, -0.82694674, -0.03611609, 0.00753178, 0.00155846, 87.60500336, 1210.34936523, 39.22999954, 0.00000000
1, 2.9700, 297, 0.01304775, -0.93853062, -0.37050605, -6.80342865, 4.72576523, -3.96074367, 13.83164692, -62.36434555, 42.41311646, 68.35150146, -1.36688614, 178.94715881, 0.00090082, -0.01502875, -0.56157881, -0.82728636, -0.03727521, 0.00917193, 0.00212403, 87.60500336, 1210.34936523, 39.22999954, 0.00000000
1, 2.9800, 298, 0.01481987, -0.93880266, -0.37095016, -6.93616915, 6.18993044, -4.36901188, 13.17348671, -62.05649185, 41.88021851, 68.28118134, -1.30341589, 178.98855591, 0.00092200, -0.01436721, -0.56108403, -0.82763362, -0.03799238, 0.00987057, 0.00142609, 87.60500336, 1210.34936523, 39.22999954, 0.00000000
1, 2.9900, 299, 0.01684758, -0.93971008, -0.36751923, -7.18352652, 7.40222263, -4.11425114, 13.24661255, -63.11199188, 42.01344299, 68.20816040, -1.23776662, 179.04208374, 0.00086572, -0.01363054, -0.56057078, -0.82799399, -0.03887818, 0.01121958, -0.00318249, 87.60500336, 1210.34936523, 39.22999954, 0.00000000
1, 3.0000, 300, 0.02028461, -0.94295055, -0.36172044, -7.55596828, 8.45800972, -3.79208374, 13.53913212, -61.52874374, 42.33699036, 68.13124847, -1.17111158, 179.10650635, 0.00073497, -0.01283331, -0.56002963, -0.82837284, -0.04115907, 0.01492773, -0.01021732, 87.60500336, 1210.34936523, 39.22999954, 0.00000000
1, 3.0100, 301, 0.02568602, -0.94424587, -0.35760930, -7.60817003, 9.44399166, -3.24384570, 13.53913212, -61.52874374, 42.33699036, 68.05152893, -1.09699631, 179.16847229, 0.00065754, -0.01199421, -0.55946749, -0.82876521, -0.04536470, 0.01670510, -0.01559374, 87.60500336, 1210.34936523, 39.22999954, 0.00000000
1, 3.0200, 302, 0.03205614, -0.94273758, -0.35251367, -7.73389721, 10.35793495, -2.52111411, 13.90477753, -62.49628448, 42.31795502, 67.97258759, -1.03483593, 179.25509644, 0.00034228, -0.01112154, -0.55891114, -0.82915300, -0.05051493, 0.01569776, -0.02199434, 87.60500336, 1210.34936523, 39.22999954, 0.00000000
1, 3.0300, 303, 0.04025924, -0.94244874, -0.34962207, -7.76859379, 11.01414490, -1.73376620, 13.53913212, -60.78109741, 42.22279358, 67.89323425, -0.97738719, 179.35067749, -0.00006193, -0.01023977, -0.55835068, -0.82954186, -0.05768784, 0.01591210, -0.02617809, 87.60500336, 1210.34936523, 39.22999954, 0.00000000
1, 3.0400, 304, 0.04539777, -0.94145411, -0.34795886, -7.51921368, 11.92932320, -0.90668654, 13.39287472, -61.17690277, 42.08957291, 67.81626129, -0.92401928, 179.45776367, -0.00057082, -0.00933204, -0.55780673, -0.82991832, -0.06186963, 0.01541270, -0.02910291, 87.60500336, 1210.34936523, 39.22999954, 0.00000000
1, 3.0500, 305, 0.04893650, -0.93816495, -0.34438902, -7.14212894, 12.84806538, -0.23812763, 13.97790337, -62.45230865, 42.94601059, 67.74300385, -0.87322509, 179.57582092, -0.00117316, -0.00839027, -0.55728865, -0.83027571, -0.06450451, 0.01260294, -0.03388650, 87.60500336, 1210.34936523, 39.22999954, 0.00000000
1, 3.0600, 306, 0.04688677, -0.93279135, -0.33895764, -6.85922956, 14.02081680, 0.59426469, 13.97790337, -62.45230865, 42.94601059, 67.67384338, -0.81475341, 179.69386292, -0.00173967, -0.00739355, -0.55679905, -0.83061254, -0.06155080, 0.00768846, -0.04047538, 87.60500336, 1210.34936523, 39.22999954, 0.00000000
1, 3.0700, 307, 0.04496906, -0.92724347, -0.33481583, -6.07077122, 14.68149090, 1.50223553, 14.56293774, -62.10047150, 42.85084915, 67.61118317, -0.77279717, 179.83537292, -0.00255799, -0.00640326, -0.55635530, -0.83091593, -0.05872708, 0.00256017, -0.04567266, 87.60500336, 1210.34936523, 39.22999954, 0.00000000
1, 3.0800, 308, 0.04500879, -0.92017162, -0.33076480, -5.19626474, 15.68535328, 2.45231509, 14.38011456, -62.89209366, 42.60343552, 67.55719757, -0.73565149, 179.98974609, -0.00349443, -0.00538609, -0.55597311, -0.83117551, -0.05808018, -0.00413966, -0.05065050, 87.60500336, 1210.34936523, 39.22999954, 0.00000000
1, 3.0900, 309, 0.03761459, -0.91395044, -0.32803181, -4.09409046, 16.85798645, 3.68649888, 14.01446915, -60.73711777, 42.52730942, 67.51413727, -0.70530051, -179.84049988, -0.00457779, -0.00434340, -0.55566871, -0.83137989, -0.05011623, -0.01005529, -0.05414227, 87.60500336, 1210.34936523, 39.22999954, 0.00000000
1, 3.1000, 310, 0.02965612, -0.90904778, -0.32928354, -3.15214205, 18.11741066, 4.78237152, 14.19729233, -61.96853638, 42.60343552, 67.48036957, -0.68013835, -179.65480042, -0.00580206, -0.00326208, -0.55543023, -0.83153647, -0.04168541, -0.01471137, -0.05350140, 87.60500336, 1210.34936523, 39.22999954, 0.00000000
1, 3.1100, 311, 0.02065492, -0.90596348, -0.32828286, -1.57013702, 19.68749428, 6.07617760, 14.70919418, -63.19995117, 42.88891602, 67.46275330, -0.65672100, -179.46388245, -0.00707361, -0.00216786, -0.55530685, -0.83161259, -0.03228873, -0.01764040, -0.05488890, 87.60500336, 1210.34936523, 39.22999954, 0.00000000
1, 3.1200, 312, 0.00694917, -0.90156984, -0.32966256, 0.19164239, 21.69296455, 7.06217813, 14.70919418, -63.19995117, 42.88891602, 67.46211243, -0.63879621, -179.23643494, -0.00863735, -0.00093563, -0.55530512, -0.83160138, -0.01821394, -0.02198900, -0.05362876, 87.60500336, 1210.34936523, 39.22999954, 0.00000000
1, 3.1300, 313, -0.00616061, -0.90397280, -0.32665384, 1.75384068, 23.46874046, 8.36036873, 14.12416077, -61.52874374, 42.60343552, 67.47691345, -0.62608647, -178.98760986, -0.01038144, 0.00036374, -0.55541271, -0.83150995, -0.00483231, -0.01965001, -0.05649105, 87.60500336, 1210.34936523, 39.22999954, 0.00000000
1, 3.1400, 314, -0.01965380, -0.90696907, -0.32113051, 3.74259162, 26.80005455, 10.23488712, 13.83164692, -61.26486588, 43.17439651, 67.51122284, -0.61804992, -178.70082092, -0.01242289, 0.00181578, -0.55565852, -0.83131576, 0.00882057, -0.01683575, -0.06157993, 87.60500336, 1210.34936523, 39.22999954, 0.00000000
1, 3.1500, 315, -0.03040762, -0.91080922, -0.31955251, 5.23204899, 30.00936890, 11.98531914, 14.30698395, -61.96853638, 43.13633347, 67.56008148, -0.61413711, -178.37768555, -0.01474664, 0.00341735, -0.55600530, -0.83104092, 0.01966841, -0.01328939, -0.06245057, 87.60500336, 1210.34936523, 39.22999954, 0.00000000
1, 3.1600, 316, -0.04257850, -0.91340309, -0.32105786, 6.19681931, 33.78121567, 13.71402550, 14.67262936, -62.23241043, 43.68825912, 67.61697388, -0.61537898, -178.02554321, -0.01730390, 0.00512556, -0.55640483, -0.83071536, 0.03186764, -0.01105714, -0.06007001, 87.60500336, 1210.34936523, 39.22999954, 0.00000000
1, 3.1700, 317, -0.05318980, -0.91976291, -0.32792684, 6.90241814, 36.85169220, 15.18268490, 14.67262936, -62.23241043, 43.68825912, 67.68173218, -0.61566305, -177.62695312, -0.02019069, 0.00707024, -0.55685294, -0.83033556, 0.04245129, -0.00510985, -0.05219788, 87.60500336, 1210.34936523, 39.22999954, 0.00000000
1, 3.1800, 318, -0.06027308, -0.92978317, -0.33527586, 6.81279945, 38.57736588, 16.66066170, 13.94133854, -62.71617889, 43.95470810, 67.74533844, -0.62352854, -177.20678711, -0.02326824, 0.00906787, -0.55728525, -0.82994556, 0.04945611, 0.00448233, -0.04380378, 87.60500336, 1210.34936523, 39.22999954, 0.00000000
1, 3.1900, 319, -0.06416890, -0.93410134, -0.34953365, 6.42680836, 38.94097900, 18.39216232, 14.19729233, -62.58424377, 44.27825546, 67.80487061, -0.64649719, -176.77671814, -0.02648883, 0.01100673, -0.55768239, -0.82955861, 0.05306154, 0.00840142, -0.02856188, 87.60500336, 1210.34936523, 39.22999954, 0.00000000
1, 3.2000, 320, -0.06330060, -0.93448114, -0.36358804, 5.54883099, 37.73488617, 20.39099693, 13.42943573, -62.62821960, 44.71599197, 67.85540009, -0.69294453, -176.35029602, -0.02979591, 0.01275877, -0.55801266, -0.82919914, 0.05154272, 0.00842795, -0.01362161, 87.60500336, 1210.34936523, 39.22999954, 0.00000000
1, 3.2100, 321, -0.05686394, -0.92392880, -0.37944168, 4.88778925, 35.14927673, 21.85039520, 13.42943573, -62.58424377, 45.11566162, 67.89343262, -0.76619178, -175.95520020, -0.03300644, 0.01416350, -0.55825698, -0.82889032, 0.04402491, -0.00240058, 0.00294632, 87.60500336, 1210.34936523, 39.22999954, 0.00000000
1, 3.2200, 322, -0.04860222, -0.91681290, -0.39609998, 4.58734846, 31.86167908, 22.32712746, 13.42943573, -62.58424377, 45.11566162, 67.93397522, -0.85327870, -175.57597351, -0.03616778, 0.01539361, -0.55852151, -0.82855821, 0.03429768, -0.00974621, 0.02022310, 87.60500336, 1210.34936523, 39.22999954, 0.00000000
1, 3.2300, 323, -0.03540149, -0.90772200, -0.40764418, 4.66689968, 27.63124275, 21.86879730, 14.08759975, -64.34340668, 45.05856705, 67.97533417, -0.95226443, -175.23774719, -0.03908928, 0.01634027, -0.55879861, -0.82822049, 0.01943974, -0.01908125, 0.03243674, 87.60500336, 1210.34936523, 39.22999954, 0.00000000
1, 3.2400, 324, -0.02414263, -0.89781994, -0.41434234, 4.86736584, 23.09169388, 19.36451721, 13.61225796, -65.09105682, 45.49630356, 68.01901245, -1.04528618, -174.95104980, -0.04160782, 0.01708154, -0.55909723, -0.82788122, 0.00649001, -0.02923447, 0.03983159, 87.60500336, 1210.34936523, 39.22999954, 0.00000000
1, 3.2500, 325, -0.01474397, -0.88768625, -0.41016716, 4.63668060, 17.25494385, 15.16434288, 13.42943573, -64.43137360, 45.34404755, 68.06127930, -1.12139988, -174.73428345, -0.04353826, 0.01760508, -0.55939102, -0.82757252, -0.00436007, -0.03963013, 0.03637677, 87.60500336, 1210.34936523, 39.22999954, 0.00000000
1, 3.2600, 326, -0.01283915, -0.87442148, -0.39672849, 3.02954149, 11.36411762, 9.40277481, 12.73470974, -64.16749573, 45.49630356, 68.07320404, -1.16479778, -174.61268616, -0.04462602, 0.01788966, -0.55947077, -0.82745451, -0.00726366, -0.05307023, 0.02342582, 87.60500336, 1210.34936523, 39.22999954, 0.00000000
1, 3.2700, 327, -0.01665260, -0.86777240, -0.38278440, 0.25621623, 4.96432018, 2.72000575, 12.73470974, -64.16749573, 45.49630356, 68.07461548, -1.17149401, -174.55647278, -0.04506439, 0.01811631, -0.55947405, -0.82742357, -0.00379885, -0.05971429, 0.00948798, 87.60500336, 1210.34936523, 39.22999954, 0.00000000
1, 3.2800, 328, -0.01967848, -0.87371027, -0.37624481, -0.46085545, -2.15070295, -4.37081671, 12.99066353, -63.99157715, 45.93403625, 68.07073975, -1.13898063, -174.59275818, -0.04464450, 0.01817258, -0.55944228, -0.82746655, -0.00048941, -0.05375001, 0.00286733, 87.60500336, 1210.34936523, 39.22999954, 0.00000000
1, 3.2900, 329, -0.01837513, -0.89682788, -0.36655042, 2.08345747, -9.43338585, -11.19388962, 13.53913212, -63.59576416, 45.95306778, 68.09406281, -1.07035077, -174.72207642, -0.04337231, 0.01804592, -0.55961132, -0.82742280, -0.00080110, -0.03071532, -0.00667319, 87.60500336, 1210.34936523, 39.22999954, 0.00000000
1, 3.3000, 330, -0.01920871, -0.92477286, -0.34045282, 6.20953083, -14.09240246, -16.08576202, 13.46600056, -64.12351990, 45.93403625, 68.15957642, -0.97358310, -174.91281128, -0.04151277, 0.01783731, -0.56008667, -0.82720101, 0.00155311, -0.00312436, -0.03196450, 87.60500336, 1210.34936523, 39.22999954, 0.00000000
1, 3.3100, 331, -0.01864447, -0.94082540, -0.31517777, 11.84092712, -16.23419189, -19.92735863, 13.79508114, -63.72769928, 45.68662262, 68.28267670, -0.84917706, -175.15144348, -0.03916366, 0.01761154, -0.56097782, -0.82671636, 0.00297615, 0.01224387, -0.05561895, 87.60500336, 1210.34936523, 39.22999954, 0.00000000
1, 3.3200, 332, -0.02527204, -0.95258778, -0.30010414, 14.23390293, -15.73412037, -22.10388184, 13.79508114, -63.72769928, 45.68662262, 68.42810059, -0.70176739, -175.37925720, -0.03677674, 0.01760701, -0.56202263, -0.82611638, 0.01202967, 0.02307604, -0.06844893, 87.60500336, 1210.34936523, 39.22999954, 0.00000000
1, 3.3300, 333, -0.04553860, -1.00932002, -0.26824072, 15.86905861, -13.39781475, -22.53437996, 13.50256634, -63.81566238, 45.64855576, 68.58905792, -0.54117990, -175.58648682, -0.03447061, 0.01779720, -0.56317312, -0.82542789, 0.03503447, 0.07876593, -0.09776153, 87.60500336, 1210.34936523, 39.22999954, 0.00000000
1, 3.3400, 334, -0.07624843, -1.01994729, -0.25474501, 19.53806305, -10.28123569, -21.42538261, 13.42943573, -62.05649185, 45.02050018, 68.78585052, -0.37897503, -175.76017761, -0.03239151, 0.01816799, -0.56457615, -0.82454497, 0.06858395, 0.08825286, -0.10841484, 87.60500336, 1210.34936523, 39.22999954, 0.00000000
1, 3.3500, 335, -0.10209519, -1.07888675, -0.24314250, 21.85659981, -9.57438183, -18.39414978, 13.57569790, -62.23241043, 45.40114212, 69.00524139, -0.24184337, -175.91572571, -0.03056147, 0.01844705, -0.56614476, -0.82353258, 0.09701893, 0.14577715, -0.11641142, 87.60500336, 1210.34936523, 39.22999954, 0.00000000
1, 3.3600, 336, -0.13247667, -1.10617185, -0.24828522, 16.77153206, -6.16025496, -13.38488770, 13.86821175, -62.71617889, 45.62952805, 69.18125916, -0.15110056, -176.03601074, -0.02922030, 0.01854989, -0.56740636, -0.82271016, 0.12938395, 0.17187996, -0.10820947, 87.60500336, 1210.34936523, 39.22999954, 0.00000000
1, 3.3700, 337, -0.14266573, -1.18872833, -0.23631176, 13.10361862, -2.98078394, -6.97862816, 13.86821175, -62.71617889, 45.62952805, 69.31241608, -0.09640626, -176.08862305, -0.02855040, 0.01871479, -0.56834304, -0.82208335, 0.14072336, 0.25347388, -0.11765863, 87.60500336, 1210.34936523, 39.22999954, 0.00000000
1, 3.3800, 338, -0.14955045, -1.20877242, -0.25569940, -3.12124085, -2.18414354, 3.82811236, 13.94133854, -61.52874374, 45.74371719, 69.28121948, -0.13993432, -176.09552002, -0.02872174, 0.01836045, -0.56813073, -0.82223201, 0.14750955, 0.27331224, -0.09772650, 87.60500336, 1210.34936523, 39.22999954, 0.00000000
1, 3.3900, 339, -0.15370107, -1.09612989, -0.24942964, -0.47745600, -0.47367850, 8.61970329, 14.48980618, -62.54026413, 45.45823669, 69.27636719, -0.22222978, -176.06944275, -0.02931754, 0.01789794, -0.56811136, -0.82223463, 0.15040681, 0.16084825, -0.10445926, 87.60500336, 1210.34936523, 39.22999954, 0.00000000
1, 3.4000, 340, -0.14388224, -1.03624010, -0.24498543, -4.47430754, 1.00432169, 13.97165775, 13.97790337, -62.27638626, 45.83887863, 69.23133087, -0.34933406, -176.01057434, -0.03037676, 0.01726579, -0.56780905, -0.82241839, 0.13868533, 0.10109416, -0.10923843, 87.60500336, 1210.34936523, 39.22999954, 0.00000000
1, 3.4100, 341, -0.12214847, -0.99873322, -0.24269459, -6.92277622, 0.02628656, 19.14418793, 14.19729233, -62.98005676, 44.96340561, 69.17568207, -0.54402459, -175.95834351, -0.03172382, 0.01611172, -0.56744725, -0.82264066, 0.11410563, 0.06399164, -0.11254117, 87.60500336, 1210.34936523, 39.22999954, 0.00000000
1, 3.4200, 342, -0.08932867, -0.96824408, -0.23544078, -8.30269432, -1.19099689, 23.71075630, 14.19729233, -62.98005676, 45.64855576, 69.09181976, -0.76982468, -175.88500977, -0.03337861, 0.01482905, -0.56688654, -0.82298583, 0.07741825, 0.03395532, -0.12087539, 87.60500336, 1210.34936523, 39.22999954, 0.00000000
1, 3.4300, 343, -0.06492102, -0.92668301, -0.23847613, -7.36090851, -3.06612730, 25.51417732, 12.91753292, -64.12351990, 45.64855576, 69.01725006, -1.01906741, -175.82241821, -0.03506881, 0.01332522, -0.56639838, -0.82327735, 0.04877544, -0.00704965, -0.11912858, 87.60500336, 1210.34936523, 39.22999954, 0.00000000
1, 3.4400, 344, -0.03542345, -0.90918815, -0.22405964, -7.73598289, -4.01716948, 24.72188568, 13.35630894, -62.67220306, 45.13468933, 68.93888092, -1.26424623, -175.77124023, -0.03665525, 0.01179090, -0.56588227, -0.82358652, 0.01495878, -0.02400637, -0.13472676, 87.60500336, 1210.34936523, 39.22999954, 0.00000000
1, 3.4500, 345, -0.01311687, -0.90220875, -0.21068937, -8.81821728, -6.03311348, 22.59099579, 13.02722931, -62.67220306, 44.88727570, 68.85009766, -1.49672902, -175.74617004, -0.03798994, 0.01021343, -0.56528974, -0.82395387, -0.01151157, -0.03035606, -0.14947020, 87.60500336, 1210.34936523, 39.22999954, 0.00000000
1, 3.4600, 346, -0.00335356, -0.90173715, -0.20236418, -7.10124350, -6.10413980, 20.38695908, 13.10035515, -64.34340668, 45.55339813, 68.79261780, -1.70469058, -175.74549866, -0.03902348, 0.00870080, -0.56491745, -0.82417816, -0.02509514, -0.03025088, -0.15900536, 87.60500336, 1210.34936523, 39.22999954, 0.00000000
1, 3.4700, 347, 0.01083688, -0.88574660, -0.19387937, -6.78404188, -6.89828587, 18.71693039, 12.66158390, -64.43137360, 45.32501221, 68.72467804, -1.90413940, -175.74198914, -0.04003465, 0.00725879, -0.56446648, -0.82445276, -0.04278710, -0.04579081, -0.16835836, 87.60500336, 1210.34936523, 39.22999954, 0.00000000
1, 3.4800, 348, 0.01348064, -0.87341940, -0.17825483, -6.58302927, -9.42604828, 14.90141296, 12.66158390, -64.43137360, 45.32501221, 68.66003418, -2.07722354, -175.77568054, -0.04064658, 0.00582355, -0.56403458, -0.82472968, -0.04862464, -0.05759054, -0.18504199, 87.60500336, 1210.34936523, 39.22999954, 0.00000000
1, 3.4900, 349, 0.00477620, -0.88019770, -0.17202942, -4.65615320, -10.61121655, 13.78074551, 12.88097191, -65.97064209, 44.98244095, 68.61531830, -2.24421763, -175.82434082, -0.04111844, 0.00436502, -0.56374347, -0.82491434, -0.04284441, -0.05038099, -0.19207720, 87.60500336, 1210.34936523, 39.22999954, 0.00000000
1, 3.5000, 350, 0.00436377, -0.89743471, -0.17163444, -4.79359341, -12.62629414, 12.05128479, 12.77127552, -65.61880493, 44.84921646, 68.57037354, -2.40250349, -175.89796448, -0.04136658, 0.00284599, -0.56344765, -0.82511061, -0.04527169, -0.03276339, -0.19313568, 87.60500336, 1210.34936523, 39.22999954, 0.00000000
1, 3.5100, 351, -0.00197100, -0.92336500, -0.16472048, -4.15449429, -14.16073608, 9.62641811, 12.51532650, -64.25545502, 44.48760605, 68.55960846, -2.53805804, -176.01181030, -0.04121200, 0.00130525, -0.56339228, -0.82516003, -0.04149276, -0.00650768, -0.20058390, 87.60500336, 1210.34936523, 39.22999954, 0.00000000
1, 3.5200, 352, -0.01652323, -0.93048465, -0.16166902, -3.31384754, -15.11641312, 6.52755022, 12.69814968, -64.65126801, 44.20212555, 68.53176880, -2.65410256, -176.12873840, -0.04093918, -0.00011613, -0.56320822, -0.82530028, -0.02906491, 0.00076924, -0.20377669, 87.60500336, 1210.34936523, 39.22999954, 0.00000000
1, 3.5300, 353, -0.03330399, -0.92854840, -0.16082306, -3.14257264, -16.37529564, 2.75638032, 12.69814968, -64.65126801, 44.20212555, 68.50706482, -2.73971677, -176.27119446, -0.04033278, -0.00144220, -0.56303990, -0.82544374, -0.01397507, -0.00093187, -0.20500600, 87.60500336, 1210.34936523, 39.22999954, 0.00000000
1, 3.5400, 354, -0.04625735, -0.92545336, -0.16820371, -3.54617476, -17.95201874, -0.73845959, 12.58845234, -63.77168274, 44.79212189, 68.47982788, -2.79866052, -176.44111633, -0.03939702, -0.00271155, -0.56284708, -0.82561713, -0.00222029, -0.00380744, -0.19802606, 87.60500336, 1210.34936523, 39.22999954, 0.00000000
1, 3.5500, 355, -0.05620248, -0.91684717, -0.16834295, -3.78805470, -18.16112518, -3.83589792, 12.44219589, -65.70676422, 44.37340927, 68.45095062, -2.82964087, -176.62435913, -0.03822764, -0.00384464, -0.56263679, -0.82581091, 0.00699778, -0.01220341, -0.19832301, 87.60500336, 1210.34936523, 39.22999954, 0.00000000
1, 3.5600, 356, -0.06973685, -0.92433459, -0.16420610, -4.33248281, -17.48942566, -6.36896515, 12.84440613, -64.82717896, 44.37340927, 68.44253540, -2.83993626, -176.82695007, -0.03681762, -0.00491637, -0.56256926, -0.82591534, 0.02026184, -0.00453851, -0.20287281, 87.60500336, 1210.34936523, 39.22999954, 0.00000000
1, 3.5700, 357, -0.09075852, -0.93222296, -0.16686143, -4.94264603, -15.72266483, -8.73818398, 12.22280693, -64.47534943, 43.84051895, 68.40193939, -2.81649852, -177.00552368, -0.03541374, -0.00563645, -0.56226671, -0.82617819, 0.04141979, 0.00346592, -0.20052955, 87.60500336, 1210.34936523, 39.22999954, 0.00000000
1, 3.5800, 358, -0.10657386, -0.91412580, -0.17121202, -3.98208022, -13.60533619, -10.80600548, 12.22280693, -64.47534943, 43.84051895, 68.37023163, -2.76615667, -177.17201233, -0.03396508, -0.00609950, -0.56202632, -0.82639921, 0.05795453, -0.01442392, -0.19679826, 87.60500336, 1210.34936523, 39.22999954, 0.00000000
1, 3.5900, 359, -0.12204516, -0.89457285, -0.17868678, -3.25473213, -12.09677410, -12.48161125, 12.66158390, -63.90362167, 43.99277496, 68.34524536, -2.69475460, -177.33065796, -0.03246986, -0.00636936, -0.56183350, -0.82658845, 0.07453820, -0.03385848, -0.18976682, 87.60500336, 1210.34936523, 39.22999954, 0.00000000
1, 3.6000, 360, -0.12319794, -0.89174378, -0.17938676, -2.25454569, -11.38276577, -12.64544392, 12.99066353, -65.66278839, 44.04986954, 68.32978058, -2.61925054, -177.48330688, -0.03099832, -0.00657684, -0.56170952, -0.82672745, 0.07700130, -0.03662255, -0.18939741, 87.60500336, 1210.34936523, 39.22999954, 0.00000000
1, 3.6100, 361, -0.12027463, -0.90835148, -0.18301228, -3.50833440, -10.44108868, -12.05930328, 13.61225796, -64.56330872, 43.59310150, 68.32462311, -2.56084442, -177.64100647, -0.02957429, -0.00692955, -0.56166053, -0.82681000, 0.07531920, -0.01996745, -0.18604422, 87.60500336, 1210.34936523, 39.22999954, 0.00000000
1, 3.6200, 362, -0.10861178, -0.94052005, -0.19923817, -5.36610937, -9.63988304, -10.50746155, 13.50256634, -64.51932526, 43.17439651, 68.27664948, -2.49885225, -177.76954651, -0.02834038, -0.00712387, -0.56130415, -0.82709354, 0.06463316, 0.01230815, -0.17020509, 87.60500336, 1210.34936523, 39.22999954, 0.00000000
1, 3.6300, 363, -0.10753076, -0.97760439, -0.19936916, -7.79497004, -8.11549854, -8.32342815, 13.50256634, -64.51932526, 43.17439651, 68.20330048, -2.45162821, -177.87588501, -0.02733721, -0.00732114, -0.56076646, -0.82749033, 0.06445931, 0.04977174, -0.17113224, 87.60500336, 1210.34936523, 39.22999954, 0.00000000
1, 3.6400, 364, -0.11660829, -0.98291636, -0.19566034, -6.99650908, -4.07333946, -6.41274500, 13.31974411, -65.17901611, 43.04117203, 68.13595581, -2.40724349, -177.93759155, -0.02667029, -0.00731814, -0.56027484, -0.82784504, 0.07431801, 0.05552064, -0.17602320, 87.60500336, 1210.34936523, 39.22999954, 0.00000000
1, 3.6500, 365, -0.12968318, -0.96524829, -0.20121481, -5.18379259, -1.10364020, -4.54529095, 13.10035515, -61.79261780, 43.00310516, 68.08525848, -2.36918116, -177.96479797, -0.02628464, -0.00718769, -0.55990565, -0.82810813, 0.08811170, 0.03819776, -0.17140988, 87.60500336, 1210.34936523, 39.22999954, 0.00000000
1, 3.6600, 366, -0.13672234, -0.96719366, -0.21416683, -3.60604644, -0.49214438, -2.33997440, 13.50256634, -63.06801224, 43.47890854, 68.16196442, -2.42237258, -177.99760437, -0.02631231, -0.00771498, -0.56045914, -0.82772803, 0.09532304, 0.04021044, -0.15864325, 87.60500336, 1210.34936523, 39.22999954, 0.00000000
1, 3.6700, 367, -0.14118429, -0.98940837, -0.22692837, -4.45048475, -2.41153717, 0.27658081, 13.79508114, -64.25545502, 43.91664886, 68.11835480, -2.43391824, -178.01898193, -0.02621136, -0.00791291, -0.56014287, -0.82794344, 0.09883060, 0.06218328, -0.14517319, 87.60500336, 1210.34936523, 39.22999954, 0.00000000
1, 3.6800, 368, -0.14409484, -1.01294196, -0.23771322, -3.09789181, -3.75159574, 3.14468956, 13.06379032, -62.58424377, 43.32665253, 68.08837128, -2.47708750, -178.04208374, -0.02625305, -0.00834477, -0.55992544, -0.82808501, 0.10120283, 0.08596817, -0.13495241, 87.60500336, 1210.34936523, 39.22999954, 0.00000000
1, 3.6900, 369, -0.15959743, -1.03681970, -0.25196105, -1.79873252, -4.97028828, 5.91004419, 13.06379032, -62.58424377, 43.32665253, 68.07143402, -2.55047035, -178.06614685, -0.02643597, -0.00899684, -0.55980235, -0.82815552, 0.11561356, 0.11003067, -0.12103691, 87.60500336, 1210.34936523, 39.22999954, 0.00000000
1, 3.7000, 370, -0.17621647, -1.06831396, -0.25181454, -0.96637046, -5.96793270, 8.57600403, 13.42943573, -62.54026413, 42.60343552, 68.06282806, -2.65231466, -178.08949280, -0.02676344, -0.00984932, -0.55973929, -0.82817799, 0.13064821, 0.14166352, -0.12133718, 87.60500336, 1210.34936523, 39.22999954, 0.00000000
1, 3.7100, 371, -0.18169788, -1.11256158, -0.23849969, -1.66762006, -7.69579983, 11.09067822, 13.42943573, -62.98005676, 43.15536499, 68.06399536, -2.79837322, -178.13600159, -0.02714016, -0.01113228, -0.55974394, -0.82814634, 0.13396248, 0.18606034, -0.13475105, 87.60500336, 1210.34936523, 39.22999954, 0.00000000
1, 3.7200, 372, -0.16993061, -1.14983201, -0.20660840, -0.40133575, -9.46233082, 12.70202541, 13.24661255, -65.88268280, 42.79375458, 68.06200409, -2.95154762, -178.17634583, -0.02759556, -0.01243749, -0.55972445, -0.82812583, 0.11947355, 0.22343539, -0.16654395, 87.60500336, 1210.34936523, 39.22999954, 0.00000000
1, 3.7300, 373, -0.15587598, -1.18838179, -0.16473234, 2.22002888, -10.85949230, 13.35018444, 14.08759975, -63.77168274, 42.60343552, 68.08689880, -3.11594462, -178.22732544, -0.02803234, -0.01386900, -0.55989593, -0.82797253, 0.10260432, 0.26202518, -0.20812830, 87.60500336, 1210.34936523, 39.22999954, 0.00000000
1, 3.7400, 374, -0.15166178, -1.22649598, -0.13471417, 4.17607737, -11.70924664, 13.78337002, 14.08759975, -63.77168274, 42.60343552, 68.13187408, -3.28749847, -178.28466797, -0.02846118, -0.01537825, -0.56020892, -0.82771939, 0.09545530, 0.30004010, -0.23746800, 87.60500336, 1210.34936523, 39.22999954, 0.00000000
1, 3.7500, 375, -0.16995633, -1.28244996, -0.16512977, 4.07383060, -12.69572258, 15.30983543, 12.80784130, -64.34340668, 42.79375458, 68.17621613, -3.47684264, -178.34564209, -0.02895175, -0.01703362, -0.56051338, -0.82746392, 0.11057835, 0.35585654, -0.20621645, 87.60500336, 1210.34936523, 39.22999954, 0.00000000
1, 3.7600, 376, -0.18795539, -1.34478724, -0.17478842, 3.05092621, -12.90282345, 18.06840706, 12.77127552, -63.85964203, 42.60343552, 68.21356964, -3.69604802, -178.41278076, -0.02954390, -0.01893619, -0.56076127, -0.82723355, 0.12498742, 0.41816035, -0.19588178, 87.60500336, 1210.34936523, 39.22999954, 0.00000000
1, 3.7700, 377, -0.18798490, -1.36427629, -0.18612818, 4.83686161, -12.67932129, 21.02079773, 13.02722931, -63.06801224, 42.14667130, 68.26459503, -3.93828249, -178.45269775, -0.03044882, -0.02086766, -0.56110710, -0.82691973, 0.12092975, 0.43758941, -0.18367407, 87.60500336, 1210.34936523, 39.22999954, 0.00000000
1, 3.7800, 378, -0.19570643, -1.37894881, -0.20077887, 1.26604486, -14.50336742, 24.91333771, 12.66158390, -64.07953644, 41.88021851, 68.28028870, -4.22340298, -178.49533081, -0.03153845, -0.02313083, -0.56118983, -0.82676244, 0.12399126, 0.45234215, -0.16834866, 87.60500336, 1210.34936523, 39.22999954, 0.00000000
